{
	"entry": [
		{
			"request": {
				"method": "PUT",
				"url": "relatedPerson/152744"
			},
			"resource":{
				"relationship":[{"text":"Authorized Representative"}],
				"id": "152744",
				"name":{"use":"official","text":"Smart, Nancy","family":["Smart"],"given":["Nancy"],"period":{"start":"2016-06-22T20:43:05.000Z"}},
				"gender":"female","period":{"start":"2017-06-09T13:41:09.000Z"},
				"telecom":[{"system":"phone","use":"mobile","value":"+17039278888"}],
				"resourceType": "RelatedPerson"
			}
		},
		{
		  "request": {
			  "method": "PUT",
			  "url": "relatedPerson/152745"
		   },
		   "resource": {
				"relationship":[{"text":"Authorized Representative"}],
			    "resourceType": "RelatedPerson",
			    "id": "152745",
			    "name":
				{"use":"official",
				  "text":"SMART, JOE",
				  "family":["SMART"],
				  "given":["JOE"],"period":{"start":"2016-06-22T21:06:59.000Z"}
				},
				"telecom":[{"system":"phone","value":"+1-317-518-8888", "use":"mobile", "period":{"start":"2017-06-27T21:47:16.000Z"}}],
				"address":{"use":"home","text":"1234 Blvd\nOverland Park, KS 66213\nUSA","line":["1234 Blvd"],"city":"Overland Park","district":"Johnson","state":"KS","postalCode":"66213","country":"USA","period":{"start":"2017-06-27T21:47:16.000Z"}},
				"gender":"male",
				"period":{"start":"2017-06-09T13:41:09.000Z"}
		   }
		},
		{
			"request": {
				"method": "PUT",
				"url": "relatedPerson/152746"
			},
			"resource": {
				"relationship":[{"text":"Authorized Representative"}],
				"id": "152746",
				"name":{"use":"official","text":"Ball, Lonzo","family":["Ball"],"given":["Lonzo"]},
				"telecom":[{"system":"phone","use":"home","value":"+1845371"}],
				"resourceType": "RelatedPerson"
			}
		},
		{
			"request":{
				"method": "PUT",
				"url": "organization/f001"
			},
			"resource": {
				
			  "resourceType": "Organization",
			  "id": "f001",
			  "text": {
				"status": "generated",
				"div": "<div xmlns=\"http://www.w3.org/1999/xhtml\"><p><b>Generated Narrative with Details</b></p><p><b>id</b>: f001</p><p><b>identifier</b>: 91654 (OFFICIAL), 17-0112278 (USUAL)</p><p><b>type</b>: University Medical Hospital <span>(Details : {urn:oid:2.16.840.1.113883.2.4.15.1060 code 'V6' = 'V6', given as 'University Medical Hospital'}; {http://hl7.org/fhir/organization-type code 'prov' = 'Healthcare Provider', given as 'Healthcare Provider'})</span></p><p><b>name</b>: Burgers University Medical Center</p><p><b>telecom</b>: ph: 022-655 2300(WORK)</p><p><b>address</b>: </p><ul><li>Galapagosweg 91 Den Burg 9105 PZ NLD (WORK)</li><li>PO Box 2311 Den Burg 9100 AA NLD (WORK)</li></ul><blockquote><p><b>contact</b></p><p><b>purpose</b>: Press <span>(Details : {http://hl7.org/fhir/contactentity-type code 'PRESS' = 'Press)</span></p><p><b>telecom</b>: ph: 022-655 2334</p></blockquote><blockquote><p><b>contact</b></p><p><b>purpose</b>: Patient <span>(Details : {http://hl7.org/fhir/contactentity-type code 'PATINF' = 'Patient)</span></p><p><b>telecom</b>: ph: 022-655 2335</p></blockquote></div>"
			  },
			  "identifier": [
				{
				  "use": "official",
				  "system": "urn:oid:2.16.528.1",
				  "value": "91654"
				},
				{
				  "use": "usual",
				  "system": "urn:oid:2.16.840.1.113883.2.4.6.1",
				  "value": "17-0112278"
				}
			  ],
			  "type": [
				{
				  "coding": [
					{
					  "system": "urn:oid:2.16.840.1.113883.2.4.15.1060",
					  "code": "V6",
					  "display": "University Medical Hospital"
					},
					{
					  "system": "http://hl7.org/fhir/organization-type",
					  "code": "prov",
					  "display": "Healthcare Provider"
					}
				  ]
				}
			  ],
			  "name": "Burgers University Medical Center",
			  "telecom": [
				{
				  "system": "phone",
				  "value": "022-655 2300",
				  "use": "work"
				}
			  ],
			  "address": [
				{
				  "use": "work",
				  "line": [
					"Galapagosweg 91"
				  ],
				  "city": "Den Burg",
				  "postalCode": "9105 PZ",
				  "country": "NLD"
				},
				{
				  "use": "work",
				  "line": [
					"PO Box 2311"
				  ],
				  "city": "Den Burg",
				  "postalCode": "9100 AA",
				  "country": "NLD"
				}
			  ],
			  "contact": [
				{
				  "purpose": {
					"coding": [
					  {
						"system": "http://hl7.org/fhir/contactentity-type",
						"code": "PRESS"
					  }
					]
				  },
				  "telecom": [
					{
					  "system": "phone",
					  "value": "022-655 2334"
					}
				  ]
				},
				{
				  "purpose": {
					"coding": [
					  {
						"system": "http://hl7.org/fhir/contactentity-type",
						"code": "PATINF"
					  }
					]
				  },
				  "telecom": [
					{
					  "system": "phone",
					  "value": "022-655 2335"
					}
				  ]
				}
			  ]
			},
		},
		{	
		"request":{
			"method": "PUT",
			"url": "Location/wing"
		},
		"resource":{
			
			  "resourceType": "Location",
			  "id": "wing",
			  "text": {
				"status": "generated",
				"div": "<div xmlns=\"http://www.w3.org/1999/xhtml\">Burgers UMC, South Wing, second floor</div>"
			  },
			  "extension": [
				{
				  "url": "http://hl7.org/fhir/StructureDefinition/location-alias",
				  "valueString": "Burgers University Medical Center, South Wing, second floor"
				},
				{
				  "url": "http://hl7.org/fhir/StructureDefinition/location-alias",
				  "valueString": "BU MC, SW, F2"
				}
			  ],
			  "identifier": [
				{
				  "value": "B1-S.F2"
				}
			  ],
			  "status": "active",
			  "name": "South Wing, second floor",
			  "description": "Second floor of the Old South Wing, formerly in use by Psychiatry",
			  "mode": "instance",
			  "telecom": [
				{
				  "system": "phone",
				  "value": "2328",
				  "use": "work"
				},
				{
				  "system": "fax",
				  "value": "2329",
				  "use": "work"
				},
				{
				  "system": "email",
				  "value": "second wing admissions"
				},
				{
				  "system": "url",
				  "value": "http://sampleorg.com/southwing",
				  "use": "work"
				}
			  ],
			  "address": {
				"use": "work",
				"line": [
				  "Galapagosweg 91, Building A"
				],
				"city": "Den Burg",
				"postalCode": "9105 PZ",
				"country": "NLD"
			  },
			  "physicalType": {
				"coding": [
				  {
					"system": "http://hl7.org/fhir/location-physical-type",
					"code": "wi",
					"display": "Wing"
				  }
				]
			  },
			  "position": {
				"longitude": -83.6945691,
				"latitude": 42.25475478,
				"altitude": 0
			  },
			  "managingOrganization": {
				"reference": "Organization/f001"
			  }
			}
		},
		{
			"request":{
				"method": "PUT",
				"url": "Location/wing"
			},
			"resource": {
			  "resourceType": "Location",
			  "id": "operation-room",
			  "text": {
				"status": "generated",
				"div": "<div xmlns=\"http://www.w3.org/1999/xhtml\">Burgers UMC, South Wing, second floor, Neuro Radiology Operation Room 1</div>"
			  },
			  "identifier": [
				{
				  "value": "B1-S.F2.1.00"
				}
			  ],
			  "status": "suspended",
			  "operationalStatus": {
				"system": "http://hl7.org/fhir/v2/0116",
				"code": "H",
				"display": "Housekeeping"
			  },
			  "name": "South Wing Neurology Operating Room 1",
			  "alias": [
				"South Wing OR 5",
				"Main Wing OR 2"
			  ],
			  "description": "Old South Wing, Neuro Radiology Operation Room 1 on second floor",
			  "mode": "instance",
			  "type": {
				"coding": [
				  {
					"system": "http://hl7.org/fhir/v3/RoleCode",
					"code": "RNEU",
					"display": "Neuroradiology unit"
				  }
				]
			  },
			  "telecom": [
				{
				  "system": "phone",
				  "value": "2329"
				}
			  ],
			  "physicalType": {
				"coding": [
				  {
					"system": "http://hl7.org/fhir/location-physical-type",
					"code": "ro",
					"display": "Room"
				  }
				]
			  },
			  "managingOrganization": {
				"reference": "Organization/f001"
			  },
			  "partOf": {
				"reference": "Location/wing"
			  }
		   }
		},
		{
		  "request": {
			  "method": "PUT",
			  "url": "Encounter/emerg"
		  },
		  "resource":{

			  "resourceType": "Encounter",
			  "id": "emerg",
			  "text": {
				"status": "generated",
				"div": "<div xmlns=\"http://www.w3.org/1999/xhtml\">Emergency visit that escalated into inpatient patient @example</div>"
			  },
			  "status": "in-progress",
			  "reason": [
			   {
				 "coding": [
				   {
					 "system": "http://snomed.info/sct",
					 "code": "34068001",
					 "display": "Partial lobectomy of lung"
				   }
				 ]
			   }
			 ],
			  "statusHistory": [
				{
				  "status": "arrived",
				  "period": {
					"start": "2017-02-01T07:15:00+10:00",
					"end": "2017-02-01T07:35:00+10:00"
				  }
				},
				{
				  "status": "triaged",
				  "period": {
					"start": "2017-02-01T07:35:00+10:00",
					"end": "2017-02-01T08:45:00+10:00"
				  }
				},
				{
				  "status": "in-progress",
				  "period": {
					"start": "2017-02-01T08:45:00+10:00",
					"end": "2017-02-01T12:15:00+10:00"
				  }
				},
				{
				  "status": "onleave",
				  "period": {
					"start": "2017-02-01T12:15:00+10:00",
					"end": "2017-02-01T12:45:00+10:00"
				  }
				},
				{
				  "status": "in-progress",
				  "period": {
					"start": "2017-02-01T12:45:00+10:00"
				  }
				}
			  ],
			  "class": {
				"system": "http://hl7.org/fhir/v3/ActCode",
				"code": "IMP",
				"display": "inpatient encounter"
			  },
			  "classHistory": [
				{
				  "class": {
					"system": "http://hl7.org/fhir/v3/ActCode",
					"code": "EMER",
					"display": "emergency"
				  },
				  "period": {
					"start": "2017-02-01T07:15:00+10:00",
					"end": "2017-02-01T09:27:00+10:00"
				  }
				},
				{
				  "class": {
					"system": "http://hl7.org/fhir/v3/ActCode",
					"code": "IMP",
					"display": "inpatient encounter"
				  },
				  "period": {
					"start": "2017-02-01T09:27:00+10:00"
				  }
				}
			  ],
			  "subject": {
				"reference": "Patient/"
			  },
			  "period": {
				"start": "2017-02-01T07:15:00+10:00"
			  },
			  "hospitalization": {
				"admitSource": {
				  "coding": [
					{
					  "system": "http://hl7.org/fhir/admit-source",
					  "code": "emd",
					  "display": "From accident/emergency department"
					}
				  ]
				}
			  },
			  "location": [
				{
				  "location": {
					"display": "Emergency Waiting Room"
				  },
				  "status": "active",
				  "period": {
					"start": "2017-02-01T07:15:00+10:00",
					"end": "2017-02-01T08:45:00+10:00"
				  }
				},
				{
				  "location": {
					"display": "Emergency"
				  },
				  "status": "active",
				  "period": {
					"start": "2017-02-01T08:45:00+10:00",
					"end": "2017-02-01T09:27:00+10:00"
				  }
				},
				{
				  "location": {
					"display": "Ward 1 Room 42 Bed 1"
				  },
				  "status": "active",
				  "period": {
					"start": "2017-02-01T09:27:00+10:00",
					"end": "2017-02-01T12:15:00+10:00"
				  }
				},
				{
				  "location": {
					"display": "Ward 1 Room 42 Bed 1"
				  },
				  "status": "reserved",
				  "period": {
					"start": "2017-02-01T12:15:00+10:00",
					"end": "2017-02-01T12:45:00+10:00"
				  }
				},
				{
				  "location": {
					"display": "Ward 1 Room 42 Bed 1"
				  },
				  "status": "active",
				  "period": {
					"start": "2017-02-01T12:45:00+10:00"
				  }
				}
			  ]
		},
		},
		{
			"request":{
				"method": "PUT",
				"url": "PractitionerRole/practitioner-example"
			},
			"resource":{
			  "resourceType": "PractitionerRole",
			  "id": "practitioner-example",
			  "text": {
				"status": "generated",
				"div": "<div xmlns=\"http://www.w3.org/1999/xhtml\">\n\t\t\t<p>\n\t\t\t\tDr Adam Careful is a Referring Practitioner for Acme Hospital from 1-Jan 2012 to 31-Mar\n\t\t\t\t2012\n\t\t\t</p>\n\t\t</div>"
			  },
			  "identifier": [
				{
				  "system": "http://www.acme.org/practitioners",
				  "value": "23"
				}
			  ],
			  "active": true,
			  "period": {
				"start": "2012-01-01",
				"end": "2012-03-31"
			  },
			  "practitioner": {
				"reference": "Practitioner/smart-Practitioner-71482713",
				"display": "Sample Practitioner"
			  },
			  "organization": {
				"reference": "Organization/f001"
			  },
			  "code": [
				{
				  "coding": [
					{
					  "system": "http://hl7.org/fhir/v2/0286",
					  "code": "RP"
					}
				  ]
				}
			  ],
			  "specialty": [
				{
				  "coding": [
					{
					  "system": "http://snomed.info/sct",
					  "code": "408443003",
					  "display": "General medical practice"
					}
				  ]
				}
			  ],
			  "location": [
				{
				  "reference": "Location/1",
				  "display": "South Wing, second floor"
				}
			  ],
			  "healthcareService": [
				{
				  "reference": "HealthcareService/example"
				}
			  ],
			  "telecom": [
				{
				  "system": "phone",
				  "value": "+1-845-598-6387",
				  "use": "work"
				},
				{
				  "system": "email",
				  "value": "sample.southern@example.org",
				  "use": "work"
				}
			  ],
			  "availableTime": [
				{
				  "daysOfWeek": [
					"mon",
					"tue",
					"wed"
				  ],
				  "availableStartTime": "09:00:00",
				  "availableEndTime": "16:30:00"
				},
				{
				  "daysOfWeek": [
					"thu",
					"fri"
				  ],
				  "availableStartTime": "09:00:00",
				  "availableEndTime": "12:00:00"
				}
			  ],
			  "notAvailable": [
				{
				  "description": "Sample will be on extended leave during May 2017",
				  "during": {
					"start": "2017-05-01",
					"end": "2017-05-20"
				  }
				}
			  ],
			  "availabilityExceptions": "Sample is generally unavailable on public holidays and during the Christmas/New Year break"
			}
		},
		{
			"request": {
				"method": "PUT",
				"url":"Communication/test-communication"
			},
			"resource":{
			  "resourceType": "Communication",
			  "id": "test-communication",
			  "text": {
				"status": "generated",
				"div": "<div xmlns=\"http://www.w3.org/1999/xhtml\">Patient has very high serum potassium</div>"
			  },
			  "identifier": [
				{
				  "type": {
					"text": "Paging System"
				  },
				  "system": "urn:oid:1.3.4.5.6.7",
				  "value": "2345678901"
				}
			  ],
			  "definition": [
				{
				  "display": "Hyperkalemia"
				}
			  ],
			  "partOf": [
				{
				  "display": "Serum Potassium Observation"
				}
			  ],
			  "status": "completed",
			  "category": [
				{
				  "coding": [
					{
					  "system": "http://acme.org/messagetypes",
					  "code": "Alert"
					}
				  ],
				  "text": "Alert"
				}
			  ],
			  "medium": [
				{
				  "coding": [
					{
					  "system": "http://hl7.org/fhir/v3/ParticipationMode",
					  "code": "WRITTEN",
					  "display": "written"
					}
				  ],
				  "text": "Communication foo bar"
				}
			  ],
			  "subject": {
				"reference": "Patient/9e35350b-c4a1-40c5-a0b3-9451e39fddc8"
			  },
			  "recipient": [
				{
				  "reference": "Practitioner/smart-Practitioner-71482713"
				}
			  ],
			  "context": {
				"reference": "Encounter/emerg"
			  },
			  "sent": "2014-12-12T18:01:10-08:00",
			  "received": "2014-12-12T18:01:11-08:00",
			  "sender": {
				"reference": "Patient/a64ea068-fb8a-48d7-82e9-fa38ba528dae"
			  },
			  "payload": [
				{
				  "contentString": "Patient 1 has a very high serum potassium value (7.2 mmol/L on 2014-Dec-12 at 5:55 pm)"
				},
				{
				  "contentReference": {
					"display": "Serum Potassium Observation"
				  }
				}
			  ]
			}
		},
		{
			"request": {
				"method": "PUT",
				"resource": "Location/ward"
			},
			"resource":{
				
				"resourceType": "Location",
				"id": "ward",
				"text": {
					"status": "generated",
					"div": "<div xmlns=\"http://www.w3.org/1999/xhtml\">Burgers UMC, South Wing, second floor Ward 1 Room 42 Bed 1</div>"
				},
				"identifier": [
					{
						"value": "B1-S.F2.1.42"
					}
				],
				"status": "active",
				"operationalStatus": {
					"system": "http://hl7.org/fhir/v2/0116",
					"code": "O",
					"display": "Occupied"
				},
				"name": "Ward 1 Room 42 Bed 1 of South Wing Neurology Operating Room 1",
				"alias": ["Ward 1 Room 42 Bed 1 SW Neuro Operating room"],
				"description": "Old South Wing Ward 1, Neuro Radiology Operation Room 42 Bed 1",
				"mode": "instance",
				"type": {
					"coding": [
						{
							"system": "http://hl7.org/fhir/v3/RoleCode",
							"code": "RNEU",
							"display": "Neuroradiology unit"
						}
					]
				},
				"telecom": [
					{
						"system": "phone",
						"value": "+1-703-851-8175"
					}
				],
				"physicalType": {
					"coding": [
						{
							"system": "http://hl7.org/fhir/location-physical-type",
							"code": "ro",
							"display": "Room"
						}
					]
				},
				"managingOrganization": {
					"reference": "Organization/f001"
				},
				"partOf": {
					"reference": "Location/wing"
				}
			}
		}
	]
}
