<?xml version="1.0" encoding="UTF-8"?>
<Bundle xmlns="http://hl7.org/fhir">
    <type value="transaction"/>

  <entry>
  <resource>
    
    
  <Patient>
    <meta>
        <tag>
            <system value="https://smarthealthit.org/tags"/>
            <code value="smart-8-2017"/>
        </tag>
    </meta>
    <id value="smart-1642068"/>
    <text>
      <status value="generated"/>
      <div xmlns="http://www.w3.org/1999/xhtml">
        <p>Betty Davis</p>
      </div>
    </text>
    <identifier>
      <use value="usual"/>
      <type>
        <coding>
          <system value="http://hl7.org/fhir/v2/0203"/>
          <code value="MR"/>
          <display value="Medical record number"/>
        </coding>
        <text value="Medical record number"/>
      </type>
      <system value="http://hospital.smarthealthit.org"/>
      <value value="1642068"/>
    </identifier>
    <name>
      <use value="official"/>
      <family value="Davis"/>
      <given value="Betty"/>
      <given value="N."/>
    </name>
    <telecom>
      <system value="phone"/>
      <value value="800-430-7442"/>
      <use value="mobile"/>
    </telecom>
    <telecom>
      <system value="email"/>
      <value value="betty.davis@example.com"/>
    </telecom>
    <gender value="female" />
    <birthDate value="1940-12-14" />
    <address>
      <use value="home"/>
      <line value="58 River Ave"/>
      <city value="Sapulpa"/>
      <state value="OK"/>
      <postalCode value="74066"/>
      <country value="USA"/>
    </address>
    <active value="true"/>
  </Patient>
  
  </resource>
  <request>
    <method value="PUT"/>
    <url value="Patient/smart-1642068"/>
  </request>
</entry>
<entry>
  <resource>
    
    
  <Observation>
    <meta>
        <tag>
            <system value="https://smarthealthit.org/tags"/>
            <code value="smart-8-2017"/>
        </tag>
    </meta>
  <id value="smart-Observation-1643-lab"/>
    <text>
      <status value="generated"/>
      <div xmlns="http://www.w3.org/1999/xhtml">2005-02-20: Potassium Bld-sCnc = 3.9 mmol/L</div>
    </text>
    <category>
      <coding>
          <system value="http://hl7.org/fhir/observation-category"/>
          <code value="laboratory"/>
          <display value="Laboratory"/>
      </coding>
      <text value="Laboratory"/>
    </category>
    <code>
      <coding>
        <system value="http://loinc.org"/>
        <code value="6298-4"/>
        <display value="Potassium Bld-sCnc"/>
      </coding>
      <text value="Potassium Bld-sCnc"/>
    </code>
    <valueQuantity>
      <value value="3.9"/>
      <unit value="mmol/L"/>
      <system value="http://unitsofmeasure.org" />
      <code value=""/>
    </valueQuantity>
    
    <effectiveDateTime value="2005-02-20"/>
    <status value="final"/>
    <subject>
      <reference value="Patient/smart-1642068"/>
    </subject>
    <referenceRange>
      <meaning>
        <coding>
         <system value="http://hl7.org/fhir/referencerange-meaning"/>
         <code value="normal"/>
         <display value="Normal Range"/>
       </coding>
       <text value="Normal Range"/>
      </meaning>
      <low>
        <value value="3.5"/>
        <unit value="mmol/L"/>
        <code value="mmol/L"/>
        <system value="http://unitsofmeasure.org"/>
      </low>
      <high>
        <value value="4.9"/>
        <unit value="mmol/L"/>
        <code value="mmol/L"/>
        <system value="http://unitsofmeasure.org"/>
      </high>
    </referenceRange>
    
  </Observation>
  
  </resource>
  <request>
    <method value="PUT"/>
    <url value="Observation/smart-Observation-1643-lab"/>
  </request>
</entry>
<entry>
  <resource>
    
    
  <Observation>
    <meta>
        <tag>
            <system value="https://smarthealthit.org/tags"/>
            <code value="smart-8-2017"/>
        </tag>
    </meta>
  <id value="smart-Observation-1644-lab"/>
    <text>
      <status value="generated"/>
      <div xmlns="http://www.w3.org/1999/xhtml">2006-01-01: PMV Bld = 9.2 fL</div>
    </text>
    <category>
      <coding>
          <system value="http://hl7.org/fhir/observation-category"/>
          <code value="laboratory"/>
          <display value="Laboratory"/>
      </coding>
      <text value="Laboratory"/>
    </category>
    <code>
      <coding>
        <system value="http://loinc.org"/>
        <code value="28542-9"/>
        <display value="PMV Bld"/>
      </coding>
      <text value="PMV Bld"/>
    </code>
    <valueQuantity>
      <value value="9.2"/>
      <unit value="fL"/>
      <system value="http://unitsofmeasure.org" />
      <code value=""/>
    </valueQuantity>
    
    <effectiveDateTime value="2006-01-01"/>
    <status value="final"/>
    <subject>
      <reference value="Patient/smart-1642068"/>
    </subject>
    <referenceRange>
      <meaning>
        <coding>
         <system value="http://hl7.org/fhir/referencerange-meaning"/>
         <code value="normal"/>
         <display value="Normal Range"/>
       </coding>
       <text value="Normal Range"/>
      </meaning>
      <low>
        <value value="6.0"/>
        <unit value="fL"/>
        <code value="fL"/>
        <system value="http://unitsofmeasure.org"/>
      </low>
      <high>
        <value value="9.5"/>
        <unit value="fL"/>
        <code value="fL"/>
        <system value="http://unitsofmeasure.org"/>
      </high>
    </referenceRange>
    
  </Observation>
  
  </resource>
  <request>
    <method value="PUT"/>
    <url value="Observation/smart-Observation-1644-lab"/>
  </request>
</entry>
<entry>
  <resource>
    
    
  <Observation>
    <meta>
        <tag>
            <system value="https://smarthealthit.org/tags"/>
            <code value="smart-8-2017"/>
        </tag>
    </meta>
  <id value="smart-Observation-1645-lab"/>
    <text>
      <status value="generated"/>
      <div xmlns="http://www.w3.org/1999/xhtml">2006-01-01: RDW RBC-Rto = 13.5 %</div>
    </text>
    <category>
      <coding>
          <system value="http://hl7.org/fhir/observation-category"/>
          <code value="laboratory"/>
          <display value="Laboratory"/>
      </coding>
      <text value="Laboratory"/>
    </category>
    <code>
      <coding>
        <system value="http://loinc.org"/>
        <code value="30385-9"/>
        <display value="RDW RBC-Rto"/>
      </coding>
      <text value="RDW RBC-Rto"/>
    </code>
    <valueQuantity>
      <value value="13.5"/>
      <unit value="%"/>
      <system value="http://unitsofmeasure.org" />
      <code value=""/>
    </valueQuantity>
    
    <effectiveDateTime value="2006-01-01"/>
    <status value="final"/>
    <subject>
      <reference value="Patient/smart-1642068"/>
    </subject>
    <referenceRange>
      <meaning>
        <coding>
         <system value="http://hl7.org/fhir/referencerange-meaning"/>
         <code value="normal"/>
         <display value="Normal Range"/>
       </coding>
       <text value="Normal Range"/>
      </meaning>
      <low>
        <value value="11.5"/>
        <unit value="%"/>
        <code value="%"/>
        <system value="http://unitsofmeasure.org"/>
      </low>
      <high>
        <value value="14.0"/>
        <unit value="%"/>
        <code value="%"/>
        <system value="http://unitsofmeasure.org"/>
      </high>
    </referenceRange>
    
  </Observation>
  
  </resource>
  <request>
    <method value="PUT"/>
    <url value="Observation/smart-Observation-1645-lab"/>
  </request>
</entry>
<entry>
  <resource>
    
    
  <Observation>
    <meta>
        <tag>
            <system value="https://smarthealthit.org/tags"/>
            <code value="smart-8-2017"/>
        </tag>
    </meta>
  <id value="smart-Observation-1646-lab"/>
    <text>
      <status value="generated"/>
      <div xmlns="http://www.w3.org/1999/xhtml">2006-01-01: WBC # Bld = 8.3 10*3/uL</div>
    </text>
    <category>
      <coding>
          <system value="http://hl7.org/fhir/observation-category"/>
          <code value="laboratory"/>
          <display value="Laboratory"/>
      </coding>
      <text value="Laboratory"/>
    </category>
    <code>
      <coding>
        <system value="http://loinc.org"/>
        <code value="26464-8"/>
        <display value="WBC # Bld"/>
      </coding>
      <text value="WBC # Bld"/>
    </code>
    <valueQuantity>
      <value value="8.3"/>
      <unit value="10*3/uL"/>
      <system value="http://unitsofmeasure.org" />
      <code value=""/>
    </valueQuantity>
    
    <effectiveDateTime value="2006-01-01"/>
    <status value="final"/>
    <subject>
      <reference value="Patient/smart-1642068"/>
    </subject>
    <referenceRange>
      <meaning>
        <coding>
         <system value="http://hl7.org/fhir/referencerange-meaning"/>
         <code value="normal"/>
         <display value="Normal Range"/>
       </coding>
       <text value="Normal Range"/>
      </meaning>
      <low>
        <value value="4.0"/>
        <unit value="10*3/uL"/>
        <code value="10*3/uL"/>
        <system value="http://unitsofmeasure.org"/>
      </low>
      <high>
        <value value="10.5"/>
        <unit value="10*3/uL"/>
        <code value="10*3/uL"/>
        <system value="http://unitsofmeasure.org"/>
      </high>
    </referenceRange>
    
  </Observation>
  
  </resource>
  <request>
    <method value="PUT"/>
    <url value="Observation/smart-Observation-1646-lab"/>
  </request>
</entry>
<entry>
  <resource>
    
    
  <Observation>
    <meta>
        <tag>
            <system value="https://smarthealthit.org/tags"/>
            <code value="smart-8-2017"/>
        </tag>
    </meta>
  <id value="smart-Observation-1647-lab"/>
    <text>
      <status value="generated"/>
      <div xmlns="http://www.w3.org/1999/xhtml">2006-01-01: RBC # Bld Auto = 4.83 10*6/uL</div>
    </text>
    <category>
      <coding>
          <system value="http://hl7.org/fhir/observation-category"/>
          <code value="laboratory"/>
          <display value="Laboratory"/>
      </coding>
      <text value="Laboratory"/>
    </category>
    <code>
      <coding>
        <system value="http://loinc.org"/>
        <code value="789-8"/>
        <display value="RBC # Bld Auto"/>
      </coding>
      <text value="RBC # Bld Auto"/>
    </code>
    <valueQuantity>
      <value value="4.83"/>
      <unit value="10*6/uL"/>
      <system value="http://unitsofmeasure.org" />
      <code value=""/>
    </valueQuantity>
    
    <effectiveDateTime value="2006-01-01"/>
    <status value="final"/>
    <subject>
      <reference value="Patient/smart-1642068"/>
    </subject>
    <referenceRange>
      <meaning>
        <coding>
         <system value="http://hl7.org/fhir/referencerange-meaning"/>
         <code value="normal"/>
         <display value="Normal Range"/>
       </coding>
       <text value="Normal Range"/>
      </meaning>
      <low>
        <value value="4.2"/>
        <unit value="10*6/uL"/>
        <code value="10*6/uL"/>
        <system value="http://unitsofmeasure.org"/>
      </low>
      <high>
        <value value="5.4"/>
        <unit value="10*6/uL"/>
        <code value="10*6/uL"/>
        <system value="http://unitsofmeasure.org"/>
      </high>
    </referenceRange>
    
  </Observation>
  
  </resource>
  <request>
    <method value="PUT"/>
    <url value="Observation/smart-Observation-1647-lab"/>
  </request>
</entry>
<entry>
  <resource>
    
    
  <Observation>
    <meta>
        <tag>
            <system value="https://smarthealthit.org/tags"/>
            <code value="smart-8-2017"/>
        </tag>
    </meta>
  <id value="smart-Observation-1648-lab"/>
    <text>
      <status value="generated"/>
      <div xmlns="http://www.w3.org/1999/xhtml">2006-01-01: Glucose SerPl-mCnc = 94 mg/dL</div>
    </text>
    <category>
      <coding>
          <system value="http://hl7.org/fhir/observation-category"/>
          <code value="laboratory"/>
          <display value="Laboratory"/>
      </coding>
      <text value="Laboratory"/>
    </category>
    <code>
      <coding>
        <system value="http://loinc.org"/>
        <code value="2345-7"/>
        <display value="Glucose SerPl-mCnc"/>
      </coding>
      <text value="Glucose SerPl-mCnc"/>
    </code>
    <valueQuantity>
      <value value="94.0"/>
      <unit value="mg/dL"/>
      <system value="http://unitsofmeasure.org" />
      <code value=""/>
    </valueQuantity>
    
    <effectiveDateTime value="2006-01-01"/>
    <status value="final"/>
    <subject>
      <reference value="Patient/smart-1642068"/>
    </subject>
    <referenceRange>
      <meaning>
        <coding>
         <system value="http://hl7.org/fhir/referencerange-meaning"/>
         <code value="normal"/>
         <display value="Normal Range"/>
       </coding>
       <text value="Normal Range"/>
      </meaning>
      <low>
        <value value="65.0"/>
        <unit value="mg/dL"/>
        <code value="mg/dL"/>
        <system value="http://unitsofmeasure.org"/>
      </low>
      <high>
        <value value="99.0"/>
        <unit value="mg/dL"/>
        <code value="mg/dL"/>
        <system value="http://unitsofmeasure.org"/>
      </high>
    </referenceRange>
    
  </Observation>
  
  </resource>
  <request>
    <method value="PUT"/>
    <url value="Observation/smart-Observation-1648-lab"/>
  </request>
</entry>
<entry>
  <resource>
    
    
  <Observation>
    <meta>
        <tag>
            <system value="https://smarthealthit.org/tags"/>
            <code value="smart-8-2017"/>
        </tag>
    </meta>
  <id value="smart-Observation-1649-lab"/>
    <text>
      <status value="generated"/>
      <div xmlns="http://www.w3.org/1999/xhtml">2006-01-01: BUN SerPl-mCnc = 13 mg/dL</div>
    </text>
    <category>
      <coding>
          <system value="http://hl7.org/fhir/observation-category"/>
          <code value="laboratory"/>
          <display value="Laboratory"/>
      </coding>
      <text value="Laboratory"/>
    </category>
    <code>
      <coding>
        <system value="http://loinc.org"/>
        <code value="3094-0"/>
        <display value="BUN SerPl-mCnc"/>
      </coding>
      <text value="BUN SerPl-mCnc"/>
    </code>
    <valueQuantity>
      <value value="13.0"/>
      <unit value="mg/dL"/>
      <system value="http://unitsofmeasure.org" />
      <code value=""/>
    </valueQuantity>
    
    <effectiveDateTime value="2006-01-01"/>
    <status value="final"/>
    <subject>
      <reference value="Patient/smart-1642068"/>
    </subject>
    <referenceRange>
      <meaning>
        <coding>
         <system value="http://hl7.org/fhir/referencerange-meaning"/>
         <code value="normal"/>
         <display value="Normal Range"/>
       </coding>
       <text value="Normal Range"/>
      </meaning>
      <low>
        <value value="8.0"/>
        <unit value="mg/dL"/>
        <code value="mg/dL"/>
        <system value="http://unitsofmeasure.org"/>
      </low>
      <high>
        <value value="25.0"/>
        <unit value="mg/dL"/>
        <code value="mg/dL"/>
        <system value="http://unitsofmeasure.org"/>
      </high>
    </referenceRange>
    
  </Observation>
  
  </resource>
  <request>
    <method value="PUT"/>
    <url value="Observation/smart-Observation-1649-lab"/>
  </request>
</entry>
<entry>
  <resource>
    
    
  <Observation>
    <meta>
        <tag>
            <system value="https://smarthealthit.org/tags"/>
            <code value="smart-8-2017"/>
        </tag>
    </meta>
  <id value="smart-Observation-1650-lab"/>
    <text>
      <status value="generated"/>
      <div xmlns="http://www.w3.org/1999/xhtml">2006-01-01: Potassium SerPl-sCnc = 3.8 mmol/L</div>
    </text>
    <category>
      <coding>
          <system value="http://hl7.org/fhir/observation-category"/>
          <code value="laboratory"/>
          <display value="Laboratory"/>
      </coding>
      <text value="Laboratory"/>
    </category>
    <code>
      <coding>
        <system value="http://loinc.org"/>
        <code value="2823-3"/>
        <display value="Potassium SerPl-sCnc"/>
      </coding>
      <text value="Potassium SerPl-sCnc"/>
    </code>
    <valueQuantity>
      <value value="3.8"/>
      <unit value="mmol/L"/>
      <system value="http://unitsofmeasure.org" />
      <code value=""/>
    </valueQuantity>
    
    <effectiveDateTime value="2006-01-01"/>
    <status value="final"/>
    <subject>
      <reference value="Patient/smart-1642068"/>
    </subject>
    <referenceRange>
      <meaning>
        <coding>
         <system value="http://hl7.org/fhir/referencerange-meaning"/>
         <code value="normal"/>
         <display value="Normal Range"/>
       </coding>
       <text value="Normal Range"/>
      </meaning>
      <low>
        <value value="3.6"/>
        <unit value="mmol/L"/>
        <code value="mmol/L"/>
        <system value="http://unitsofmeasure.org"/>
      </low>
      <high>
        <value value="5.5"/>
        <unit value="mmol/L"/>
        <code value="mmol/L"/>
        <system value="http://unitsofmeasure.org"/>
      </high>
    </referenceRange>
    
  </Observation>
  
  </resource>
  <request>
    <method value="PUT"/>
    <url value="Observation/smart-Observation-1650-lab"/>
  </request>
</entry>
<entry>
  <resource>
    
    
  <Observation>
    <meta>
        <tag>
            <system value="https://smarthealthit.org/tags"/>
            <code value="smart-8-2017"/>
        </tag>
    </meta>
  <id value="smart-Observation-1651-lab"/>
    <text>
      <status value="generated"/>
      <div xmlns="http://www.w3.org/1999/xhtml">2006-01-01: Chloride SerPl-sCnc = 101 mmol/L</div>
    </text>
    <category>
      <coding>
          <system value="http://hl7.org/fhir/observation-category"/>
          <code value="laboratory"/>
          <display value="Laboratory"/>
      </coding>
      <text value="Laboratory"/>
    </category>
    <code>
      <coding>
        <system value="http://loinc.org"/>
        <code value="2075-0"/>
        <display value="Chloride SerPl-sCnc"/>
      </coding>
      <text value="Chloride SerPl-sCnc"/>
    </code>
    <valueQuantity>
      <value value="101.0"/>
      <unit value="mmol/L"/>
      <system value="http://unitsofmeasure.org" />
      <code value=""/>
    </valueQuantity>
    
    <effectiveDateTime value="2006-01-01"/>
    <status value="final"/>
    <subject>
      <reference value="Patient/smart-1642068"/>
    </subject>
    <referenceRange>
      <meaning>
        <coding>
         <system value="http://hl7.org/fhir/referencerange-meaning"/>
         <code value="normal"/>
         <display value="Normal Range"/>
       </coding>
       <text value="Normal Range"/>
      </meaning>
      <low>
        <value value="96.0"/>
        <unit value="mmol/L"/>
        <code value="mmol/L"/>
        <system value="http://unitsofmeasure.org"/>
      </low>
      <high>
        <value value="108.0"/>
        <unit value="mmol/L"/>
        <code value="mmol/L"/>
        <system value="http://unitsofmeasure.org"/>
      </high>
    </referenceRange>
    
  </Observation>
  
  </resource>
  <request>
    <method value="PUT"/>
    <url value="Observation/smart-Observation-1651-lab"/>
  </request>
</entry>
<entry>
  <resource>
    
    
  <Observation>
    <meta>
        <tag>
            <system value="https://smarthealthit.org/tags"/>
            <code value="smart-8-2017"/>
        </tag>
    </meta>
  <id value="smart-Observation-1652-lab"/>
    <text>
      <status value="generated"/>
      <div xmlns="http://www.w3.org/1999/xhtml">2006-01-01: Neutrophils NFr Bld = 61 %</div>
    </text>
    <category>
      <coding>
          <system value="http://hl7.org/fhir/observation-category"/>
          <code value="laboratory"/>
          <display value="Laboratory"/>
      </coding>
      <text value="Laboratory"/>
    </category>
    <code>
      <coding>
        <system value="http://loinc.org"/>
        <code value="26511-6"/>
        <display value="Neutrophils NFr Bld"/>
      </coding>
      <text value="Neutrophils NFr Bld"/>
    </code>
    <valueQuantity>
      <value value="61.0"/>
      <unit value="%"/>
      <system value="http://unitsofmeasure.org" />
      <code value=""/>
    </valueQuantity>
    
    <effectiveDateTime value="2006-01-01"/>
    <status value="final"/>
    <subject>
      <reference value="Patient/smart-1642068"/>
    </subject>
    <referenceRange>
      <meaning>
        <coding>
         <system value="http://hl7.org/fhir/referencerange-meaning"/>
         <code value="normal"/>
         <display value="Normal Range"/>
       </coding>
       <text value="Normal Range"/>
      </meaning>
      <low>
        <value value="44.0"/>
        <unit value="%"/>
        <code value="%"/>
        <system value="http://unitsofmeasure.org"/>
      </low>
      <high>
        <value value="74.0"/>
        <unit value="%"/>
        <code value="%"/>
        <system value="http://unitsofmeasure.org"/>
      </high>
    </referenceRange>
    
  </Observation>
  
  </resource>
  <request>
    <method value="PUT"/>
    <url value="Observation/smart-Observation-1652-lab"/>
  </request>
</entry>
<entry>
  <resource>
    
    
  <Observation>
    <meta>
        <tag>
            <system value="https://smarthealthit.org/tags"/>
            <code value="smart-8-2017"/>
        </tag>
    </meta>
  <id value="smart-Observation-1653-lab"/>
    <text>
      <status value="generated"/>
      <div xmlns="http://www.w3.org/1999/xhtml">2006-01-01: MCHC RBC Auto-mCnc = 34.1 g/dL</div>
    </text>
    <category>
      <coding>
          <system value="http://hl7.org/fhir/observation-category"/>
          <code value="laboratory"/>
          <display value="Laboratory"/>
      </coding>
      <text value="Laboratory"/>
    </category>
    <code>
      <coding>
        <system value="http://loinc.org"/>
        <code value="786-4"/>
        <display value="MCHC RBC Auto-mCnc"/>
      </coding>
      <text value="MCHC RBC Auto-mCnc"/>
    </code>
    <valueQuantity>
      <value value="34.1"/>
      <unit value="g/dL"/>
      <system value="http://unitsofmeasure.org" />
      <code value=""/>
    </valueQuantity>
    
    <effectiveDateTime value="2006-01-01"/>
    <status value="final"/>
    <subject>
      <reference value="Patient/smart-1642068"/>
    </subject>
    <referenceRange>
      <meaning>
        <coding>
         <system value="http://hl7.org/fhir/referencerange-meaning"/>
         <code value="normal"/>
         <display value="Normal Range"/>
       </coding>
       <text value="Normal Range"/>
      </meaning>
      <low>
        <value value="32.0"/>
        <unit value="g/dL"/>
        <code value="g/dL"/>
        <system value="http://unitsofmeasure.org"/>
      </low>
      <high>
        <value value="36.0"/>
        <unit value="g/dL"/>
        <code value="g/dL"/>
        <system value="http://unitsofmeasure.org"/>
      </high>
    </referenceRange>
    
  </Observation>
  
  </resource>
  <request>
    <method value="PUT"/>
    <url value="Observation/smart-Observation-1653-lab"/>
  </request>
</entry>
<entry>
  <resource>
    
    
  <Observation>
    <meta>
        <tag>
            <system value="https://smarthealthit.org/tags"/>
            <code value="smart-8-2017"/>
        </tag>
    </meta>
  <id value="smart-Observation-1654-lab"/>
    <text>
      <status value="generated"/>
      <div xmlns="http://www.w3.org/1999/xhtml">2006-01-01: Monocytes NFr Bld = 7 %</div>
    </text>
    <category>
      <coding>
          <system value="http://hl7.org/fhir/observation-category"/>
          <code value="laboratory"/>
          <display value="Laboratory"/>
      </coding>
      <text value="Laboratory"/>
    </category>
    <code>
      <coding>
        <system value="http://loinc.org"/>
        <code value="26485-3"/>
        <display value="Monocytes NFr Bld"/>
      </coding>
      <text value="Monocytes NFr Bld"/>
    </code>
    <valueQuantity>
      <value value="7.0"/>
      <unit value="%"/>
      <system value="http://unitsofmeasure.org" />
      <code value=""/>
    </valueQuantity>
    
    <effectiveDateTime value="2006-01-01"/>
    <status value="final"/>
    <subject>
      <reference value="Patient/smart-1642068"/>
    </subject>
    <referenceRange>
      <meaning>
        <coding>
         <system value="http://hl7.org/fhir/referencerange-meaning"/>
         <code value="normal"/>
         <display value="Normal Range"/>
       </coding>
       <text value="Normal Range"/>
      </meaning>
      <low>
        <value value="2.0"/>
        <unit value="%"/>
        <code value="%"/>
        <system value="http://unitsofmeasure.org"/>
      </low>
      <high>
        <value value="13.0"/>
        <unit value="%"/>
        <code value="%"/>
        <system value="http://unitsofmeasure.org"/>
      </high>
    </referenceRange>
    
  </Observation>
  
  </resource>
  <request>
    <method value="PUT"/>
    <url value="Observation/smart-Observation-1654-lab"/>
  </request>
</entry>
<entry>
  <resource>
    
    
  <Observation>
    <meta>
        <tag>
            <system value="https://smarthealthit.org/tags"/>
            <code value="smart-8-2017"/>
        </tag>
    </meta>
  <id value="smart-Observation-1655-lab"/>
    <text>
      <status value="generated"/>
      <div xmlns="http://www.w3.org/1999/xhtml">2006-01-01: Eosinophil NFr Bld = 5 %</div>
    </text>
    <category>
      <coding>
          <system value="http://hl7.org/fhir/observation-category"/>
          <code value="laboratory"/>
          <display value="Laboratory"/>
      </coding>
      <text value="Laboratory"/>
    </category>
    <code>
      <coding>
        <system value="http://loinc.org"/>
        <code value="26450-7"/>
        <display value="Eosinophil NFr Bld"/>
      </coding>
      <text value="Eosinophil NFr Bld"/>
    </code>
    <valueQuantity>
      <value value="5.0"/>
      <unit value="%"/>
      <system value="http://unitsofmeasure.org" />
      <code value=""/>
    </valueQuantity>
    
    <effectiveDateTime value="2006-01-01"/>
    <status value="final"/>
    <subject>
      <reference value="Patient/smart-1642068"/>
    </subject>
    <referenceRange>
      <meaning>
        <coding>
         <system value="http://hl7.org/fhir/referencerange-meaning"/>
         <code value="normal"/>
         <display value="Normal Range"/>
       </coding>
       <text value="Normal Range"/>
      </meaning>
      <low>
        <value value="0.0"/>
        <unit value="%"/>
        <code value="%"/>
        <system value="http://unitsofmeasure.org"/>
      </low>
      <high>
        <value value="7.0"/>
        <unit value="%"/>
        <code value="%"/>
        <system value="http://unitsofmeasure.org"/>
      </high>
    </referenceRange>
    
  </Observation>
  
  </resource>
  <request>
    <method value="PUT"/>
    <url value="Observation/smart-Observation-1655-lab"/>
  </request>
</entry>
<entry>
  <resource>
    
    
  <Observation>
    <meta>
        <tag>
            <system value="https://smarthealthit.org/tags"/>
            <code value="smart-8-2017"/>
        </tag>
    </meta>
  <id value="smart-Observation-1656-lab"/>
    <text>
      <status value="generated"/>
      <div xmlns="http://www.w3.org/1999/xhtml">2006-01-01: Hgb Bld-mCnc = 15.1 g/dL</div>
    </text>
    <category>
      <coding>
          <system value="http://hl7.org/fhir/observation-category"/>
          <code value="laboratory"/>
          <display value="Laboratory"/>
      </coding>
      <text value="Laboratory"/>
    </category>
    <code>
      <coding>
        <system value="http://loinc.org"/>
        <code value="718-7"/>
        <display value="Hgb Bld-mCnc"/>
      </coding>
      <text value="Hgb Bld-mCnc"/>
    </code>
    <valueQuantity>
      <value value="15.1"/>
      <unit value="g/dL"/>
      <system value="http://unitsofmeasure.org" />
      <code value=""/>
    </valueQuantity>
    
    <effectiveDateTime value="2006-01-01"/>
    <status value="final"/>
    <subject>
      <reference value="Patient/smart-1642068"/>
    </subject>
    <referenceRange>
      <meaning>
        <coding>
         <system value="http://hl7.org/fhir/referencerange-meaning"/>
         <code value="normal"/>
         <display value="Normal Range"/>
       </coding>
       <text value="Normal Range"/>
      </meaning>
      <low>
        <value value="12.5"/>
        <unit value="g/dL"/>
        <code value="g/dL"/>
        <system value="http://unitsofmeasure.org"/>
      </low>
      <high>
        <value value="16.0"/>
        <unit value="g/dL"/>
        <code value="g/dL"/>
        <system value="http://unitsofmeasure.org"/>
      </high>
    </referenceRange>
    
  </Observation>
  
  </resource>
  <request>
    <method value="PUT"/>
    <url value="Observation/smart-Observation-1656-lab"/>
  </request>
</entry>
<entry>
  <resource>
    
    
  <Observation>
    <meta>
        <tag>
            <system value="https://smarthealthit.org/tags"/>
            <code value="smart-8-2017"/>
        </tag>
    </meta>
  <id value="smart-Observation-1657-lab"/>
    <text>
      <status value="generated"/>
      <div xmlns="http://www.w3.org/1999/xhtml">2006-01-01: ALP SerPl-cCnc = 122 U/L</div>
    </text>
    <category>
      <coding>
          <system value="http://hl7.org/fhir/observation-category"/>
          <code value="laboratory"/>
          <display value="Laboratory"/>
      </coding>
      <text value="Laboratory"/>
    </category>
    <code>
      <coding>
        <system value="http://loinc.org"/>
        <code value="6768-6"/>
        <display value="ALP SerPl-cCnc"/>
      </coding>
      <text value="ALP SerPl-cCnc"/>
    </code>
    <valueQuantity>
      <value value="122.0"/>
      <unit value="U/L"/>
      <system value="http://unitsofmeasure.org" />
      <code value=""/>
    </valueQuantity>
    
    <effectiveDateTime value="2006-01-01"/>
    <status value="final"/>
    <subject>
      <reference value="Patient/smart-1642068"/>
    </subject>
    <referenceRange>
      <meaning>
        <coding>
         <system value="http://hl7.org/fhir/referencerange-meaning"/>
         <code value="normal"/>
         <display value="Normal Range"/>
       </coding>
       <text value="Normal Range"/>
      </meaning>
      <low>
        <value value="20.0"/>
        <unit value="U/L"/>
        <code value="U/L"/>
        <system value="http://unitsofmeasure.org"/>
      </low>
      <high>
        <value value="125.0"/>
        <unit value="U/L"/>
        <code value="U/L"/>
        <system value="http://unitsofmeasure.org"/>
      </high>
    </referenceRange>
    
  </Observation>
  
  </resource>
  <request>
    <method value="PUT"/>
    <url value="Observation/smart-Observation-1657-lab"/>
  </request>
</entry>
<entry>
  <resource>
    
    
  <Observation>
    <meta>
        <tag>
            <system value="https://smarthealthit.org/tags"/>
            <code value="smart-8-2017"/>
        </tag>
    </meta>
  <id value="smart-Observation-1658-lab"/>
    <text>
      <status value="generated"/>
      <div xmlns="http://www.w3.org/1999/xhtml">2006-01-01: Prot SerPl-mCnc = 7.5 g/dL</div>
    </text>
    <category>
      <coding>
          <system value="http://hl7.org/fhir/observation-category"/>
          <code value="laboratory"/>
          <display value="Laboratory"/>
      </coding>
      <text value="Laboratory"/>
    </category>
    <code>
      <coding>
        <system value="http://loinc.org"/>
        <code value="2885-2"/>
        <display value="Prot SerPl-mCnc"/>
      </coding>
      <text value="Prot SerPl-mCnc"/>
    </code>
    <valueQuantity>
      <value value="7.5"/>
      <unit value="g/dL"/>
      <system value="http://unitsofmeasure.org" />
      <code value=""/>
    </valueQuantity>
    
    <effectiveDateTime value="2006-01-01"/>
    <status value="final"/>
    <subject>
      <reference value="Patient/smart-1642068"/>
    </subject>
    <referenceRange>
      <meaning>
        <coding>
         <system value="http://hl7.org/fhir/referencerange-meaning"/>
         <code value="normal"/>
         <display value="Normal Range"/>
       </coding>
       <text value="Normal Range"/>
      </meaning>
      <low>
        <value value="6.0"/>
        <unit value="g/dL"/>
        <code value="g/dL"/>
        <system value="http://unitsofmeasure.org"/>
      </low>
      <high>
        <value value="8.3"/>
        <unit value="g/dL"/>
        <code value="g/dL"/>
        <system value="http://unitsofmeasure.org"/>
      </high>
    </referenceRange>
    
  </Observation>
  
  </resource>
  <request>
    <method value="PUT"/>
    <url value="Observation/smart-Observation-1658-lab"/>
  </request>
</entry>
<entry>
  <resource>
    
    
  <Observation>
    <meta>
        <tag>
            <system value="https://smarthealthit.org/tags"/>
            <code value="smart-8-2017"/>
        </tag>
    </meta>
  <id value="smart-Observation-1659-lab"/>
    <text>
      <status value="generated"/>
      <div xmlns="http://www.w3.org/1999/xhtml">2006-01-01: Albumin SerPl-mCnc = 4.6 g/dL</div>
    </text>
    <category>
      <coding>
          <system value="http://hl7.org/fhir/observation-category"/>
          <code value="laboratory"/>
          <display value="Laboratory"/>
      </coding>
      <text value="Laboratory"/>
    </category>
    <code>
      <coding>
        <system value="http://loinc.org"/>
        <code value="1751-7"/>
        <display value="Albumin SerPl-mCnc"/>
      </coding>
      <text value="Albumin SerPl-mCnc"/>
    </code>
    <valueQuantity>
      <value value="4.6"/>
      <unit value="g/dL"/>
      <system value="http://unitsofmeasure.org" />
      <code value=""/>
    </valueQuantity>
    
    <effectiveDateTime value="2006-01-01"/>
    <status value="final"/>
    <subject>
      <reference value="Patient/smart-1642068"/>
    </subject>
    <referenceRange>
      <meaning>
        <coding>
         <system value="http://hl7.org/fhir/referencerange-meaning"/>
         <code value="normal"/>
         <display value="Normal Range"/>
       </coding>
       <text value="Normal Range"/>
      </meaning>
      <low>
        <value value="3.2"/>
        <unit value="g/dL"/>
        <code value="g/dL"/>
        <system value="http://unitsofmeasure.org"/>
      </low>
      <high>
        <value value="5.2"/>
        <unit value="g/dL"/>
        <code value="g/dL"/>
        <system value="http://unitsofmeasure.org"/>
      </high>
    </referenceRange>
    
  </Observation>
  
  </resource>
  <request>
    <method value="PUT"/>
    <url value="Observation/smart-Observation-1659-lab"/>
  </request>
</entry>
<entry>
  <resource>
    
    
  <Observation>
    <meta>
        <tag>
            <system value="https://smarthealthit.org/tags"/>
            <code value="smart-8-2017"/>
        </tag>
    </meta>
  <id value="smart-Observation-1660-lab"/>
    <text>
      <status value="generated"/>
      <div xmlns="http://www.w3.org/1999/xhtml">2006-01-01: Bilirub SerPl-mCnc = 0.5 mg/dL</div>
    </text>
    <category>
      <coding>
          <system value="http://hl7.org/fhir/observation-category"/>
          <code value="laboratory"/>
          <display value="Laboratory"/>
      </coding>
      <text value="Laboratory"/>
    </category>
    <code>
      <coding>
        <system value="http://loinc.org"/>
        <code value="1975-2"/>
        <display value="Bilirub SerPl-mCnc"/>
      </coding>
      <text value="Bilirub SerPl-mCnc"/>
    </code>
    <valueQuantity>
      <value value="0.5"/>
      <unit value="mg/dL"/>
      <system value="http://unitsofmeasure.org" />
      <code value=""/>
    </valueQuantity>
    
    <effectiveDateTime value="2006-01-01"/>
    <status value="final"/>
    <subject>
      <reference value="Patient/smart-1642068"/>
    </subject>
    <referenceRange>
      <meaning>
        <coding>
         <system value="http://hl7.org/fhir/referencerange-meaning"/>
         <code value="normal"/>
         <display value="Normal Range"/>
       </coding>
       <text value="Normal Range"/>
      </meaning>
      <low>
        <value value="0.2"/>
        <unit value="mg/dL"/>
        <code value="mg/dL"/>
        <system value="http://unitsofmeasure.org"/>
      </low>
      <high>
        <value value="1.0"/>
        <unit value="mg/dL"/>
        <code value="mg/dL"/>
        <system value="http://unitsofmeasure.org"/>
      </high>
    </referenceRange>
    
  </Observation>
  
  </resource>
  <request>
    <method value="PUT"/>
    <url value="Observation/smart-Observation-1660-lab"/>
  </request>
</entry>
<entry>
  <resource>
    
    
  <Observation>
    <meta>
        <tag>
            <system value="https://smarthealthit.org/tags"/>
            <code value="smart-8-2017"/>
        </tag>
    </meta>
  <id value="smart-Observation-1661-lab"/>
    <text>
      <status value="generated"/>
      <div xmlns="http://www.w3.org/1999/xhtml">2006-01-01: AST SerPl-cCnc = 25 U/L</div>
    </text>
    <category>
      <coding>
          <system value="http://hl7.org/fhir/observation-category"/>
          <code value="laboratory"/>
          <display value="Laboratory"/>
      </coding>
      <text value="Laboratory"/>
    </category>
    <code>
      <coding>
        <system value="http://loinc.org"/>
        <code value="1920-8"/>
        <display value="AST SerPl-cCnc"/>
      </coding>
      <text value="AST SerPl-cCnc"/>
    </code>
    <valueQuantity>
      <value value="25.0"/>
      <unit value="U/L"/>
      <system value="http://unitsofmeasure.org" />
      <code value=""/>
    </valueQuantity>
    
    <effectiveDateTime value="2006-01-01"/>
    <status value="final"/>
    <subject>
      <reference value="Patient/smart-1642068"/>
    </subject>
    <referenceRange>
      <meaning>
        <coding>
         <system value="http://hl7.org/fhir/referencerange-meaning"/>
         <code value="normal"/>
         <display value="Normal Range"/>
       </coding>
       <text value="Normal Range"/>
      </meaning>
      <low>
        <value value="0.0"/>
        <unit value="U/L"/>
        <code value="U/L"/>
        <system value="http://unitsofmeasure.org"/>
      </low>
      <high>
        <value value="31.0"/>
        <unit value="U/L"/>
        <code value="U/L"/>
        <system value="http://unitsofmeasure.org"/>
      </high>
    </referenceRange>
    
  </Observation>
  
  </resource>
  <request>
    <method value="PUT"/>
    <url value="Observation/smart-Observation-1661-lab"/>
  </request>
</entry>
<entry>
  <resource>
    
    
  <Observation>
    <meta>
        <tag>
            <system value="https://smarthealthit.org/tags"/>
            <code value="smart-8-2017"/>
        </tag>
    </meta>
  <id value="smart-Observation-1662-lab"/>
    <text>
      <status value="generated"/>
      <div xmlns="http://www.w3.org/1999/xhtml">2006-01-01: Sodium SerPl-sCnc = 140 mmol/L</div>
    </text>
    <category>
      <coding>
          <system value="http://hl7.org/fhir/observation-category"/>
          <code value="laboratory"/>
          <display value="Laboratory"/>
      </coding>
      <text value="Laboratory"/>
    </category>
    <code>
      <coding>
        <system value="http://loinc.org"/>
        <code value="2951-2"/>
        <display value="Sodium SerPl-sCnc"/>
      </coding>
      <text value="Sodium SerPl-sCnc"/>
    </code>
    <valueQuantity>
      <value value="140.0"/>
      <unit value="mmol/L"/>
      <system value="http://unitsofmeasure.org" />
      <code value=""/>
    </valueQuantity>
    
    <effectiveDateTime value="2006-01-01"/>
    <status value="final"/>
    <subject>
      <reference value="Patient/smart-1642068"/>
    </subject>
    <referenceRange>
      <meaning>
        <coding>
         <system value="http://hl7.org/fhir/referencerange-meaning"/>
         <code value="normal"/>
         <display value="Normal Range"/>
       </coding>
       <text value="Normal Range"/>
      </meaning>
      <low>
        <value value="133.0"/>
        <unit value="mmol/L"/>
        <code value="mmol/L"/>
        <system value="http://unitsofmeasure.org"/>
      </low>
      <high>
        <value value="145.0"/>
        <unit value="mmol/L"/>
        <code value="mmol/L"/>
        <system value="http://unitsofmeasure.org"/>
      </high>
    </referenceRange>
    
  </Observation>
  
  </resource>
  <request>
    <method value="PUT"/>
    <url value="Observation/smart-Observation-1662-lab"/>
  </request>
</entry>
<entry>
  <resource>
    
    
  <Observation>
    <meta>
        <tag>
            <system value="https://smarthealthit.org/tags"/>
            <code value="smart-8-2017"/>
        </tag>
    </meta>
  <id value="smart-Observation-1663-lab"/>
    <text>
      <status value="generated"/>
      <div xmlns="http://www.w3.org/1999/xhtml">2006-01-01: Creat SerPl-mCnc = 0.9 mg/dL</div>
    </text>
    <category>
      <coding>
          <system value="http://hl7.org/fhir/observation-category"/>
          <code value="laboratory"/>
          <display value="Laboratory"/>
      </coding>
      <text value="Laboratory"/>
    </category>
    <code>
      <coding>
        <system value="http://loinc.org"/>
        <code value="2160-0"/>
        <display value="Creat SerPl-mCnc"/>
      </coding>
      <text value="Creat SerPl-mCnc"/>
    </code>
    <valueQuantity>
      <value value="0.9"/>
      <unit value="mg/dL"/>
      <system value="http://unitsofmeasure.org" />
      <code value=""/>
    </valueQuantity>
    
    <effectiveDateTime value="2006-01-01"/>
    <status value="final"/>
    <subject>
      <reference value="Patient/smart-1642068"/>
    </subject>
    <referenceRange>
      <meaning>
        <coding>
         <system value="http://hl7.org/fhir/referencerange-meaning"/>
         <code value="normal"/>
         <display value="Normal Range"/>
       </coding>
       <text value="Normal Range"/>
      </meaning>
      <low>
        <value value="0.6"/>
        <unit value="mg/dL"/>
        <code value="mg/dL"/>
        <system value="http://unitsofmeasure.org"/>
      </low>
      <high>
        <value value="1.3"/>
        <unit value="mg/dL"/>
        <code value="mg/dL"/>
        <system value="http://unitsofmeasure.org"/>
      </high>
    </referenceRange>
    
  </Observation>
  
  </resource>
  <request>
    <method value="PUT"/>
    <url value="Observation/smart-Observation-1663-lab"/>
  </request>
</entry>
<entry>
  <resource>
    
    
  <Observation>
    <meta>
        <tag>
            <system value="https://smarthealthit.org/tags"/>
            <code value="smart-8-2017"/>
        </tag>
    </meta>
  <id value="smart-Observation-1664-lab"/>
    <text>
      <status value="generated"/>
      <div xmlns="http://www.w3.org/1999/xhtml">2006-01-01: ALT SerPl-cCnc = 27 U/L</div>
    </text>
    <category>
      <coding>
          <system value="http://hl7.org/fhir/observation-category"/>
          <code value="laboratory"/>
          <display value="Laboratory"/>
      </coding>
      <text value="Laboratory"/>
    </category>
    <code>
      <coding>
        <system value="http://loinc.org"/>
        <code value="1742-6"/>
        <display value="ALT SerPl-cCnc"/>
      </coding>
      <text value="ALT SerPl-cCnc"/>
    </code>
    <valueQuantity>
      <value value="27.0"/>
      <unit value="U/L"/>
      <system value="http://unitsofmeasure.org" />
      <code value=""/>
    </valueQuantity>
    
    <effectiveDateTime value="2006-01-01"/>
    <status value="final"/>
    <subject>
      <reference value="Patient/smart-1642068"/>
    </subject>
    <referenceRange>
      <meaning>
        <coding>
         <system value="http://hl7.org/fhir/referencerange-meaning"/>
         <code value="normal"/>
         <display value="Normal Range"/>
       </coding>
       <text value="Normal Range"/>
      </meaning>
      <low>
        <value value="0.0"/>
        <unit value="U/L"/>
        <code value="U/L"/>
        <system value="http://unitsofmeasure.org"/>
      </low>
      <high>
        <value value="31.0"/>
        <unit value="U/L"/>
        <code value="U/L"/>
        <system value="http://unitsofmeasure.org"/>
      </high>
    </referenceRange>
    
  </Observation>
  
  </resource>
  <request>
    <method value="PUT"/>
    <url value="Observation/smart-Observation-1664-lab"/>
  </request>
</entry>
<entry>
  <resource>
    
    
  <Observation>
    <meta>
        <tag>
            <system value="https://smarthealthit.org/tags"/>
            <code value="smart-8-2017"/>
        </tag>
    </meta>
  <id value="smart-Observation-1665-lab"/>
    <text>
      <status value="generated"/>
      <div xmlns="http://www.w3.org/1999/xhtml">2006-01-01: TB Wheal 3D p 5 TU Diam = 0.6 mm</div>
    </text>
    <category>
      <coding>
          <system value="http://hl7.org/fhir/observation-category"/>
          <code value="laboratory"/>
          <display value="Laboratory"/>
      </coding>
      <text value="Laboratory"/>
    </category>
    <code>
      <coding>
        <system value="http://loinc.org"/>
        <code value="1648-5"/>
        <display value="TB Wheal 3D p 5 TU Diam"/>
      </coding>
      <text value="TB Wheal 3D p 5 TU Diam"/>
    </code>
    <valueQuantity>
      <value value="0.6"/>
      <unit value="mm"/>
      <system value="http://unitsofmeasure.org" />
      <code value=""/>
    </valueQuantity>
    
    <effectiveDateTime value="2006-01-01"/>
    <status value="final"/>
    <subject>
      <reference value="Patient/smart-1642068"/>
    </subject>
    <referenceRange>
      <meaning>
        <coding>
         <system value="http://hl7.org/fhir/referencerange-meaning"/>
         <code value="normal"/>
         <display value="Normal Range"/>
       </coding>
       <text value="Normal Range"/>
      </meaning>
      <low>
        <value value="0.0"/>
        <unit value="mm"/>
        <code value="mm"/>
        <system value="http://unitsofmeasure.org"/>
      </low>
      <high>
        <value value="1.0"/>
        <unit value="mm"/>
        <code value="mm"/>
        <system value="http://unitsofmeasure.org"/>
      </high>
    </referenceRange>
    
  </Observation>
  
  </resource>
  <request>
    <method value="PUT"/>
    <url value="Observation/smart-Observation-1665-lab"/>
  </request>
</entry>
<entry>
  <resource>
    
    
  <Observation>
    <meta>
        <tag>
            <system value="https://smarthealthit.org/tags"/>
            <code value="smart-8-2017"/>
        </tag>
    </meta>
  <id value="smart-Observation-1666-lab"/>
    <text>
      <status value="generated"/>
      <div xmlns="http://www.w3.org/1999/xhtml">2006-01-01: Platelet # Bld = 313 10*3/uL</div>
    </text>
    <category>
      <coding>
          <system value="http://hl7.org/fhir/observation-category"/>
          <code value="laboratory"/>
          <display value="Laboratory"/>
      </coding>
      <text value="Laboratory"/>
    </category>
    <code>
      <coding>
        <system value="http://loinc.org"/>
        <code value="26515-7"/>
        <display value="Platelet # Bld"/>
      </coding>
      <text value="Platelet # Bld"/>
    </code>
    <valueQuantity>
      <value value="313.0"/>
      <unit value="10*3/uL"/>
      <system value="http://unitsofmeasure.org" />
      <code value=""/>
    </valueQuantity>
    
    <effectiveDateTime value="2006-01-01"/>
    <status value="final"/>
    <subject>
      <reference value="Patient/smart-1642068"/>
    </subject>
    <referenceRange>
      <meaning>
        <coding>
         <system value="http://hl7.org/fhir/referencerange-meaning"/>
         <code value="normal"/>
         <display value="Normal Range"/>
       </coding>
       <text value="Normal Range"/>
      </meaning>
      <low>
        <value value="150.0"/>
        <unit value="10*3/uL"/>
        <code value="10*3/uL"/>
        <system value="http://unitsofmeasure.org"/>
      </low>
      <high>
        <value value="450.0"/>
        <unit value="10*3/uL"/>
        <code value="10*3/uL"/>
        <system value="http://unitsofmeasure.org"/>
      </high>
    </referenceRange>
    
  </Observation>
  
  </resource>
  <request>
    <method value="PUT"/>
    <url value="Observation/smart-Observation-1666-lab"/>
  </request>
</entry>
<entry>
  <resource>
    
    
  <Observation>
    <meta>
        <tag>
            <system value="https://smarthealthit.org/tags"/>
            <code value="smart-8-2017"/>
        </tag>
    </meta>
  <id value="smart-Observation-1667-lab"/>
    <text>
      <status value="generated"/>
      <div xmlns="http://www.w3.org/1999/xhtml">2006-01-01: MCV RBC = 91.6 fL</div>
    </text>
    <category>
      <coding>
          <system value="http://hl7.org/fhir/observation-category"/>
          <code value="laboratory"/>
          <display value="Laboratory"/>
      </coding>
      <text value="Laboratory"/>
    </category>
    <code>
      <coding>
        <system value="http://loinc.org"/>
        <code value="30428-7"/>
        <display value="MCV RBC"/>
      </coding>
      <text value="MCV RBC"/>
    </code>
    <valueQuantity>
      <value value="91.6"/>
      <unit value="fL"/>
      <system value="http://unitsofmeasure.org" />
      <code value=""/>
    </valueQuantity>
    
    <effectiveDateTime value="2006-01-01"/>
    <status value="final"/>
    <subject>
      <reference value="Patient/smart-1642068"/>
    </subject>
    <referenceRange>
      <meaning>
        <coding>
         <system value="http://hl7.org/fhir/referencerange-meaning"/>
         <code value="normal"/>
         <display value="Normal Range"/>
       </coding>
       <text value="Normal Range"/>
      </meaning>
      <low>
        <value value="78.0"/>
        <unit value="fL"/>
        <code value="fL"/>
        <system value="http://unitsofmeasure.org"/>
      </low>
      <high>
        <value value="100.0"/>
        <unit value="fL"/>
        <code value="fL"/>
        <system value="http://unitsofmeasure.org"/>
      </high>
    </referenceRange>
    
  </Observation>
  
  </resource>
  <request>
    <method value="PUT"/>
    <url value="Observation/smart-Observation-1667-lab"/>
  </request>
</entry>
<entry>
  <resource>
    
    
  <Observation>
    <meta>
        <tag>
            <system value="https://smarthealthit.org/tags"/>
            <code value="smart-8-2017"/>
        </tag>
    </meta>
  <id value="smart-Observation-1668-lab"/>
    <text>
      <status value="generated"/>
      <div xmlns="http://www.w3.org/1999/xhtml">2006-01-01: MCH RBC Qn Auto = 31.2 pg</div>
    </text>
    <category>
      <coding>
          <system value="http://hl7.org/fhir/observation-category"/>
          <code value="laboratory"/>
          <display value="Laboratory"/>
      </coding>
      <text value="Laboratory"/>
    </category>
    <code>
      <coding>
        <system value="http://loinc.org"/>
        <code value="785-6"/>
        <display value="MCH RBC Qn Auto"/>
      </coding>
      <text value="MCH RBC Qn Auto"/>
    </code>
    <valueQuantity>
      <value value="31.2"/>
      <unit value="pg"/>
      <system value="http://unitsofmeasure.org" />
      <code value=""/>
    </valueQuantity>
    
    <effectiveDateTime value="2006-01-01"/>
    <status value="final"/>
    <subject>
      <reference value="Patient/smart-1642068"/>
    </subject>
    <referenceRange>
      <meaning>
        <coding>
         <system value="http://hl7.org/fhir/referencerange-meaning"/>
         <code value="normal"/>
         <display value="Normal Range"/>
       </coding>
       <text value="Normal Range"/>
      </meaning>
      <low>
        <value value="27.0"/>
        <unit value="pg"/>
        <code value="pg"/>
        <system value="http://unitsofmeasure.org"/>
      </low>
      <high>
        <value value="31.0"/>
        <unit value="pg"/>
        <code value="pg"/>
        <system value="http://unitsofmeasure.org"/>
      </high>
    </referenceRange>
    
  </Observation>
  
  </resource>
  <request>
    <method value="PUT"/>
    <url value="Observation/smart-Observation-1668-lab"/>
  </request>
</entry>
<entry>
  <resource>
    
    
  <Observation>
    <meta>
        <tag>
            <system value="https://smarthealthit.org/tags"/>
            <code value="smart-8-2017"/>
        </tag>
    </meta>
  <id value="smart-Observation-1669-lab"/>
    <text>
      <status value="generated"/>
      <div xmlns="http://www.w3.org/1999/xhtml">2006-01-01: Calcium SerPl-mCnc = 9.9 mg/dL</div>
    </text>
    <category>
      <coding>
          <system value="http://hl7.org/fhir/observation-category"/>
          <code value="laboratory"/>
          <display value="Laboratory"/>
      </coding>
      <text value="Laboratory"/>
    </category>
    <code>
      <coding>
        <system value="http://loinc.org"/>
        <code value="17861-6"/>
        <display value="Calcium SerPl-mCnc"/>
      </coding>
      <text value="Calcium SerPl-mCnc"/>
    </code>
    <valueQuantity>
      <value value="9.9"/>
      <unit value="mg/dL"/>
      <system value="http://unitsofmeasure.org" />
      <code value=""/>
    </valueQuantity>
    
    <effectiveDateTime value="2006-01-01"/>
    <status value="final"/>
    <subject>
      <reference value="Patient/smart-1642068"/>
    </subject>
    <referenceRange>
      <meaning>
        <coding>
         <system value="http://hl7.org/fhir/referencerange-meaning"/>
         <code value="normal"/>
         <display value="Normal Range"/>
       </coding>
       <text value="Normal Range"/>
      </meaning>
      <low>
        <value value="8.4"/>
        <unit value="mg/dL"/>
        <code value="mg/dL"/>
        <system value="http://unitsofmeasure.org"/>
      </low>
      <high>
        <value value="10.4"/>
        <unit value="mg/dL"/>
        <code value="mg/dL"/>
        <system value="http://unitsofmeasure.org"/>
      </high>
    </referenceRange>
    
  </Observation>
  
  </resource>
  <request>
    <method value="PUT"/>
    <url value="Observation/smart-Observation-1669-lab"/>
  </request>
</entry>
<entry>
  <resource>
    
    
  <Observation>
    <meta>
        <tag>
            <system value="https://smarthealthit.org/tags"/>
            <code value="smart-8-2017"/>
        </tag>
    </meta>
  <id value="smart-Observation-1670-lab"/>
    <text>
      <status value="generated"/>
      <div xmlns="http://www.w3.org/1999/xhtml">2006-01-01: Lymphocytes NFr Bld = 26 %</div>
    </text>
    <category>
      <coding>
          <system value="http://hl7.org/fhir/observation-category"/>
          <code value="laboratory"/>
          <display value="Laboratory"/>
      </coding>
      <text value="Laboratory"/>
    </category>
    <code>
      <coding>
        <system value="http://loinc.org"/>
        <code value="26478-8"/>
        <display value="Lymphocytes NFr Bld"/>
      </coding>
      <text value="Lymphocytes NFr Bld"/>
    </code>
    <valueQuantity>
      <value value="26.0"/>
      <unit value="%"/>
      <system value="http://unitsofmeasure.org" />
      <code value=""/>
    </valueQuantity>
    
    <effectiveDateTime value="2006-01-01"/>
    <status value="final"/>
    <subject>
      <reference value="Patient/smart-1642068"/>
    </subject>
    <referenceRange>
      <meaning>
        <coding>
         <system value="http://hl7.org/fhir/referencerange-meaning"/>
         <code value="normal"/>
         <display value="Normal Range"/>
       </coding>
       <text value="Normal Range"/>
      </meaning>
      <low>
        <value value="20.0"/>
        <unit value="%"/>
        <code value="%"/>
        <system value="http://unitsofmeasure.org"/>
      </low>
      <high>
        <value value="50.0"/>
        <unit value="%"/>
        <code value="%"/>
        <system value="http://unitsofmeasure.org"/>
      </high>
    </referenceRange>
    
  </Observation>
  
  </resource>
  <request>
    <method value="PUT"/>
    <url value="Observation/smart-Observation-1670-lab"/>
  </request>
</entry>
<entry>
  <resource>
    
    
<MedicationOrder>
  <meta>
      <tag>
          <system value="https://smarthealthit.org/tags"/>
          <code value="smart-8-2017"/>
      </tag>
  </meta>
  <id value="smart-MedicationOrder-179"/>
  <text>
    <status value="generated"/>
    <div xmlns="http://www.w3.org/1999/xhtml">
      Thyroxine 0.112 MG Oral Tablet [Levoxyl] (rxnorm: 206485)
    </div>
  </text>

  <status value="active" />
  <patient>
    <reference value="Patient/smart-1642068"/>
  </patient>

  <medicationCodeableConcept>
    <coding>
        <system value="http://www.nlm.nih.gov/research/umls/rxnorm"/>
        <code value="206485"/>
        <display value="Thyroxine 0.112 MG Oral Tablet [Levoxyl]"/>
    </coding>
    <text value="Thyroxine 0.112 MG Oral Tablet [Levoxyl]"/>
  </medicationCodeableConcept>

  <dosageInstruction>
    <timing>
      <repeat>
        <boundsPeriod>
          <start value="2008-08-07"/>
        </boundsPeriod>
        <frequency value="1"/>
        <period value="1"/>
        <periodUnits value="d"/>
      </repeat>
      
    </timing>
    <doseQuantity>
      <value value="1"/>
      <unit value="{tablet}"/>
      <system value="http://unitsofmeasure.org"/>
      <code value="{tablet}"/>
    </doseQuantity>
    
    <text value="1 daily"/>
  </dosageInstruction>
  <dispenseRequest>
     <numberOfRepeatsAllowed value="1"/>
     
     <quantity>
        <value value="90"/>
        <unit value="{tablet}"/>
        <system value="http://unitsofmeasure.org"/>
        <code value="{tablet}"/>
     </quantity>
     
     <expectedSupplyDuration>
        <value value="90"/>
        <unit value="days"/>
        <system value="http://unitsofmeasure.org"/>
        <code value="d"/>
     </expectedSupplyDuration>
     
  </dispenseRequest>
  
</MedicationOrder>

  </resource>
  <request>
    <method value="PUT"/>
    <url value="MedicationOrder/smart-MedicationOrder-179"/>
  </request>
</entry>
<entry>
  <resource>
    
    
<MedicationDispense>
  <meta>
      <tag>
          <system value="https://smarthealthit.org/tags"/>
          <code value="smart-8-2017"/>
      </tag>
  </meta>
  <id value="smart-MedicationDispense-60"/>
  <!--  insert contents here  -->
   <text>
    <status value="generated"/>
    <div xmlns="http://www.w3.org/1999/xhtml">
      Dispensed 90 tablets = 90 day supply of Thyroxine 0.112 MG Oral Tablet [Levoxyl]
    </div>
  </text>

  <status value="completed"/>

  <patient>
    <reference value="Patient/smart-1642068"/>
  </patient>

  <authorizingPrescription>
    <reference value="MedicationOrder/smart-MedicationOrder-179"/>
  </authorizingPrescription>

  <quantity>
      <value value="90"/>
      <unit value="tablets"/>
      <system value="http://unitsofmeasure.org"/>
      <code value="{tablets}"/>
  </quantity>

  <daysSupply>
      <value value="90" />
      <unit value="days" />
      <system value="http://unitsofmeasure.org" />
      <code value="d" />
  </daysSupply>

  <medicationCodeableConcept>
    <coding>
        <system value="http://www.nlm.nih.gov/research/umls/rxnorm"/>
        <code value="206485"/>
        <display value="Thyroxine 0.112 MG Oral Tablet [Levoxyl]"/>
    </coding>
    <text value="Thyroxine 0.112 MG Oral Tablet [Levoxyl]"/>
  </medicationCodeableConcept>

  <whenHandedOver value="2009-05-02"/>

</MedicationDispense>

  </resource>
  <request>
    <method value="PUT"/>
    <url value="MedicationDispense/smart-MedicationDispense-60"/>
  </request>
</entry>
<entry>
  <resource>
    
    
<MedicationDispense>
  <meta>
      <tag>
          <system value="https://smarthealthit.org/tags"/>
          <code value="smart-8-2017"/>
      </tag>
  </meta>
  <id value="smart-MedicationDispense-57"/>
  <!--  insert contents here  -->
   <text>
    <status value="generated"/>
    <div xmlns="http://www.w3.org/1999/xhtml">
      Dispensed 90 tablets = 90 day supply of Thyroxine 0.112 MG Oral Tablet [Levoxyl]
    </div>
  </text>

  <status value="completed"/>

  <patient>
    <reference value="Patient/smart-1642068"/>
  </patient>

  <authorizingPrescription>
    <reference value="MedicationOrder/smart-MedicationOrder-179"/>
  </authorizingPrescription>

  <quantity>
      <value value="90"/>
      <unit value="tablets"/>
      <system value="http://unitsofmeasure.org"/>
      <code value="{tablets}"/>
  </quantity>

  <daysSupply>
      <value value="90" />
      <unit value="days" />
      <system value="http://unitsofmeasure.org" />
      <code value="d" />
  </daysSupply>

  <medicationCodeableConcept>
    <coding>
        <system value="http://www.nlm.nih.gov/research/umls/rxnorm"/>
        <code value="206485"/>
        <display value="Thyroxine 0.112 MG Oral Tablet [Levoxyl]"/>
    </coding>
    <text value="Thyroxine 0.112 MG Oral Tablet [Levoxyl]"/>
  </medicationCodeableConcept>

  <whenHandedOver value="2008-08-07"/>

</MedicationDispense>

  </resource>
  <request>
    <method value="PUT"/>
    <url value="MedicationDispense/smart-MedicationDispense-57"/>
  </request>
</entry>
<entry>
  <resource>
    
    
<MedicationDispense>
  <meta>
      <tag>
          <system value="https://smarthealthit.org/tags"/>
          <code value="smart-8-2017"/>
      </tag>
  </meta>
  <id value="smart-MedicationDispense-59"/>
  <!--  insert contents here  -->
   <text>
    <status value="generated"/>
    <div xmlns="http://www.w3.org/1999/xhtml">
      Dispensed 90 tablets = 90 day supply of Thyroxine 0.112 MG Oral Tablet [Levoxyl]
    </div>
  </text>

  <status value="completed"/>

  <patient>
    <reference value="Patient/smart-1642068"/>
  </patient>

  <authorizingPrescription>
    <reference value="MedicationOrder/smart-MedicationOrder-179"/>
  </authorizingPrescription>

  <quantity>
      <value value="90"/>
      <unit value="tablets"/>
      <system value="http://unitsofmeasure.org"/>
      <code value="{tablets}"/>
  </quantity>

  <daysSupply>
      <value value="90" />
      <unit value="days" />
      <system value="http://unitsofmeasure.org" />
      <code value="d" />
  </daysSupply>

  <medicationCodeableConcept>
    <coding>
        <system value="http://www.nlm.nih.gov/research/umls/rxnorm"/>
        <code value="206485"/>
        <display value="Thyroxine 0.112 MG Oral Tablet [Levoxyl]"/>
    </coding>
    <text value="Thyroxine 0.112 MG Oral Tablet [Levoxyl]"/>
  </medicationCodeableConcept>

  <whenHandedOver value="2009-01-29"/>

</MedicationDispense>

  </resource>
  <request>
    <method value="PUT"/>
    <url value="MedicationDispense/smart-MedicationDispense-59"/>
  </request>
</entry>
<entry>
  <resource>
    
    
<MedicationDispense>
  <meta>
      <tag>
          <system value="https://smarthealthit.org/tags"/>
          <code value="smart-8-2017"/>
      </tag>
  </meta>
  <id value="smart-MedicationDispense-58"/>
  <!--  insert contents here  -->
   <text>
    <status value="generated"/>
    <div xmlns="http://www.w3.org/1999/xhtml">
      Dispensed 90 tablets = 90 day supply of Thyroxine 0.112 MG Oral Tablet [Levoxyl]
    </div>
  </text>

  <status value="completed"/>

  <patient>
    <reference value="Patient/smart-1642068"/>
  </patient>

  <authorizingPrescription>
    <reference value="MedicationOrder/smart-MedicationOrder-179"/>
  </authorizingPrescription>

  <quantity>
      <value value="90"/>
      <unit value="tablets"/>
      <system value="http://unitsofmeasure.org"/>
      <code value="{tablets}"/>
  </quantity>

  <daysSupply>
      <value value="90" />
      <unit value="days" />
      <system value="http://unitsofmeasure.org" />
      <code value="d" />
  </daysSupply>

  <medicationCodeableConcept>
    <coding>
        <system value="http://www.nlm.nih.gov/research/umls/rxnorm"/>
        <code value="206485"/>
        <display value="Thyroxine 0.112 MG Oral Tablet [Levoxyl]"/>
    </coding>
    <text value="Thyroxine 0.112 MG Oral Tablet [Levoxyl]"/>
  </medicationCodeableConcept>

  <whenHandedOver value="2008-11-06"/>

</MedicationDispense>

  </resource>
  <request>
    <method value="PUT"/>
    <url value="MedicationDispense/smart-MedicationDispense-58"/>
  </request>
</entry>
<entry>
  <resource>
    
    
<MedicationDispense>
  <meta>
      <tag>
          <system value="https://smarthealthit.org/tags"/>
          <code value="smart-8-2017"/>
      </tag>
  </meta>
  <id value="smart-MedicationDispense-61"/>
  <!--  insert contents here  -->
   <text>
    <status value="generated"/>
    <div xmlns="http://www.w3.org/1999/xhtml">
      Dispensed 90 tablets = 90 day supply of Thyroxine 0.112 MG Oral Tablet [Levoxyl]
    </div>
  </text>

  <status value="completed"/>

  <patient>
    <reference value="Patient/smart-1642068"/>
  </patient>

  <authorizingPrescription>
    <reference value="MedicationOrder/smart-MedicationOrder-179"/>
  </authorizingPrescription>

  <quantity>
      <value value="90"/>
      <unit value="tablets"/>
      <system value="http://unitsofmeasure.org"/>
      <code value="{tablets}"/>
  </quantity>

  <daysSupply>
      <value value="90" />
      <unit value="days" />
      <system value="http://unitsofmeasure.org" />
      <code value="d" />
  </daysSupply>

  <medicationCodeableConcept>
    <coding>
        <system value="http://www.nlm.nih.gov/research/umls/rxnorm"/>
        <code value="206485"/>
        <display value="Thyroxine 0.112 MG Oral Tablet [Levoxyl]"/>
    </coding>
    <text value="Thyroxine 0.112 MG Oral Tablet [Levoxyl]"/>
  </medicationCodeableConcept>

  <whenHandedOver value="2009-07-16"/>

</MedicationDispense>

  </resource>
  <request>
    <method value="PUT"/>
    <url value="MedicationDispense/smart-MedicationDispense-61"/>
  </request>
</entry>
<entry>
  <resource>
    
    
<MedicationOrder>
  <meta>
      <tag>
          <system value="https://smarthealthit.org/tags"/>
          <code value="smart-8-2017"/>
      </tag>
  </meta>
  <id value="smart-MedicationOrder-180"/>
  <text>
    <status value="generated"/>
    <div xmlns="http://www.w3.org/1999/xhtml">
      Hydrochlorothiazide 12.5 MG / irbesartan 150 MG Oral Tablet [Avalide 150/12.5] (rxnorm: 823934)
    </div>
  </text>

  <status value="active" />
  <patient>
    <reference value="Patient/smart-1642068"/>
  </patient>

  <medicationCodeableConcept>
    <coding>
        <system value="http://www.nlm.nih.gov/research/umls/rxnorm"/>
        <code value="823934"/>
        <display value="Hydrochlorothiazide 12.5 MG / irbesartan 150 MG Oral Tablet [Avalide 150/12.5]"/>
    </coding>
    <text value="Hydrochlorothiazide 12.5 MG / irbesartan 150 MG Oral Tablet [Avalide 150/12.5]"/>
  </medicationCodeableConcept>

  <dosageInstruction>
    <timing>
      <repeat>
        <boundsPeriod>
          <start value="2008-08-29"/>
        </boundsPeriod>
        <frequency value="1"/>
        <period value="1"/>
        <periodUnits value="d"/>
      </repeat>
      
    </timing>
    <doseQuantity>
      <value value="1"/>
      <unit value="{tablet}"/>
      <system value="http://unitsofmeasure.org"/>
      <code value="{tablet}"/>
    </doseQuantity>
    
    <text value="1 daily"/>
  </dosageInstruction>
  <dispenseRequest>
     <numberOfRepeatsAllowed value="1"/>
     
     <quantity>
        <value value="90"/>
        <unit value="{tablet}"/>
        <system value="http://unitsofmeasure.org"/>
        <code value="{tablet}"/>
     </quantity>
     
     <expectedSupplyDuration>
        <value value="90"/>
        <unit value="days"/>
        <system value="http://unitsofmeasure.org"/>
        <code value="d"/>
     </expectedSupplyDuration>
     
  </dispenseRequest>
  
</MedicationOrder>

  </resource>
  <request>
    <method value="PUT"/>
    <url value="MedicationOrder/smart-MedicationOrder-180"/>
  </request>
</entry>
<entry>
  <resource>
    
    
<MedicationDispense>
  <meta>
      <tag>
          <system value="https://smarthealthit.org/tags"/>
          <code value="smart-8-2017"/>
      </tag>
  </meta>
  <id value="smart-MedicationDispense-80"/>
  <!--  insert contents here  -->
   <text>
    <status value="generated"/>
    <div xmlns="http://www.w3.org/1999/xhtml">
      Dispensed 90 tablets = 90 day supply of Hydrochlorothiazide 12.5 MG / irbesartan 150 MG Oral Tablet [Avalide 150/12.5]
    </div>
  </text>

  <status value="completed"/>

  <patient>
    <reference value="Patient/smart-1642068"/>
  </patient>

  <authorizingPrescription>
    <reference value="MedicationOrder/smart-MedicationOrder-180"/>
  </authorizingPrescription>

  <quantity>
      <value value="90"/>
      <unit value="tablets"/>
      <system value="http://unitsofmeasure.org"/>
      <code value="{tablets}"/>
  </quantity>

  <daysSupply>
      <value value="90" />
      <unit value="days" />
      <system value="http://unitsofmeasure.org" />
      <code value="d" />
  </daysSupply>

  <medicationCodeableConcept>
    <coding>
        <system value="http://www.nlm.nih.gov/research/umls/rxnorm"/>
        <code value="823934"/>
        <display value="Hydrochlorothiazide 12.5 MG / irbesartan 150 MG Oral Tablet [Avalide 150/12.5]"/>
    </coding>
    <text value="Hydrochlorothiazide 12.5 MG / irbesartan 150 MG Oral Tablet [Avalide 150/12.5]"/>
  </medicationCodeableConcept>

  <whenHandedOver value="2008-08-29"/>

</MedicationDispense>

  </resource>
  <request>
    <method value="PUT"/>
    <url value="MedicationDispense/smart-MedicationDispense-80"/>
  </request>
</entry>
<entry>
  <resource>
    
    
<MedicationOrder>
  <meta>
      <tag>
          <system value="https://smarthealthit.org/tags"/>
          <code value="smart-8-2017"/>
      </tag>
  </meta>
  <id value="smart-MedicationOrder-181"/>
  <text>
    <status value="generated"/>
    <div xmlns="http://www.w3.org/1999/xhtml">
      pantoprazole 40 MG Enteric Coated Tablet (rxnorm: 314200)
    </div>
  </text>

  <status value="active" />
  <patient>
    <reference value="Patient/smart-1642068"/>
  </patient>

  <medicationCodeableConcept>
    <coding>
        <system value="http://www.nlm.nih.gov/research/umls/rxnorm"/>
        <code value="314200"/>
        <display value="pantoprazole 40 MG Enteric Coated Tablet"/>
    </coding>
    <text value="pantoprazole 40 MG Enteric Coated Tablet"/>
  </medicationCodeableConcept>

  <dosageInstruction>
    <timing>
      <repeat>
        <boundsPeriod>
          <start value="2008-09-21"/>
        </boundsPeriod>
        <frequency value="1"/>
        <period value="1"/>
        <periodUnits value="d"/>
      </repeat>
      
    </timing>
    <doseQuantity>
      <value value="1"/>
      <unit value="{tablet}"/>
      <system value="http://unitsofmeasure.org"/>
      <code value="{tablet}"/>
    </doseQuantity>
    
    <text value="1 daily"/>
  </dosageInstruction>
  <dispenseRequest>
     <numberOfRepeatsAllowed value="1"/>
     
     <quantity>
        <value value="90"/>
        <unit value="{tablet}"/>
        <system value="http://unitsofmeasure.org"/>
        <code value="{tablet}"/>
     </quantity>
     
     <expectedSupplyDuration>
        <value value="90"/>
        <unit value="days"/>
        <system value="http://unitsofmeasure.org"/>
        <code value="d"/>
     </expectedSupplyDuration>
     
  </dispenseRequest>
  
</MedicationOrder>

  </resource>
  <request>
    <method value="PUT"/>
    <url value="MedicationOrder/smart-MedicationOrder-181"/>
  </request>
</entry>
<entry>
  <resource>
    
    
<MedicationDispense>
  <meta>
      <tag>
          <system value="https://smarthealthit.org/tags"/>
          <code value="smart-8-2017"/>
      </tag>
  </meta>
  <id value="smart-MedicationDispense-52"/>
  <!--  insert contents here  -->
   <text>
    <status value="generated"/>
    <div xmlns="http://www.w3.org/1999/xhtml">
      Dispensed 90 tablets = 90 day supply of pantoprazole 40 MG Enteric Coated Tablet
    </div>
  </text>

  <status value="completed"/>

  <patient>
    <reference value="Patient/smart-1642068"/>
  </patient>

  <authorizingPrescription>
    <reference value="MedicationOrder/smart-MedicationOrder-181"/>
  </authorizingPrescription>

  <quantity>
      <value value="90"/>
      <unit value="tablets"/>
      <system value="http://unitsofmeasure.org"/>
      <code value="{tablets}"/>
  </quantity>

  <daysSupply>
      <value value="90" />
      <unit value="days" />
      <system value="http://unitsofmeasure.org" />
      <code value="d" />
  </daysSupply>

  <medicationCodeableConcept>
    <coding>
        <system value="http://www.nlm.nih.gov/research/umls/rxnorm"/>
        <code value="314200"/>
        <display value="pantoprazole 40 MG Enteric Coated Tablet"/>
    </coding>
    <text value="pantoprazole 40 MG Enteric Coated Tablet"/>
  </medicationCodeableConcept>

  <whenHandedOver value="2008-09-21"/>

</MedicationDispense>

  </resource>
  <request>
    <method value="PUT"/>
    <url value="MedicationDispense/smart-MedicationDispense-52"/>
  </request>
</entry>
<entry>
  <resource>
    
    
<MedicationDispense>
  <meta>
      <tag>
          <system value="https://smarthealthit.org/tags"/>
          <code value="smart-8-2017"/>
      </tag>
  </meta>
  <id value="smart-MedicationDispense-53"/>
  <!--  insert contents here  -->
   <text>
    <status value="generated"/>
    <div xmlns="http://www.w3.org/1999/xhtml">
      Dispensed 90 tablets = 90 day supply of pantoprazole 40 MG Enteric Coated Tablet
    </div>
  </text>

  <status value="completed"/>

  <patient>
    <reference value="Patient/smart-1642068"/>
  </patient>

  <authorizingPrescription>
    <reference value="MedicationOrder/smart-MedicationOrder-181"/>
  </authorizingPrescription>

  <quantity>
      <value value="90"/>
      <unit value="tablets"/>
      <system value="http://unitsofmeasure.org"/>
      <code value="{tablets}"/>
  </quantity>

  <daysSupply>
      <value value="90" />
      <unit value="days" />
      <system value="http://unitsofmeasure.org" />
      <code value="d" />
  </daysSupply>

  <medicationCodeableConcept>
    <coding>
        <system value="http://www.nlm.nih.gov/research/umls/rxnorm"/>
        <code value="314200"/>
        <display value="pantoprazole 40 MG Enteric Coated Tablet"/>
    </coding>
    <text value="pantoprazole 40 MG Enteric Coated Tablet"/>
  </medicationCodeableConcept>

  <whenHandedOver value="2008-12-20"/>

</MedicationDispense>

  </resource>
  <request>
    <method value="PUT"/>
    <url value="MedicationDispense/smart-MedicationDispense-53"/>
  </request>
</entry>
<entry>
  <resource>
    
    
<MedicationOrder>
  <meta>
      <tag>
          <system value="https://smarthealthit.org/tags"/>
          <code value="smart-8-2017"/>
      </tag>
  </meta>
  <id value="smart-MedicationOrder-182"/>
  <text>
    <status value="generated"/>
    <div xmlns="http://www.w3.org/1999/xhtml">
      Ranitidine 150 MG Oral Tablet (rxnorm: 198191)
    </div>
  </text>

  <status value="active" />
  <patient>
    <reference value="Patient/smart-1642068"/>
  </patient>

  <medicationCodeableConcept>
    <coding>
        <system value="http://www.nlm.nih.gov/research/umls/rxnorm"/>
        <code value="198191"/>
        <display value="Ranitidine 150 MG Oral Tablet"/>
    </coding>
    <text value="Ranitidine 150 MG Oral Tablet"/>
  </medicationCodeableConcept>

  <dosageInstruction>
    <timing>
      <repeat>
        <boundsPeriod>
          <start value="2008-09-25"/>
        </boundsPeriod>
        <frequency value="2"/>
        <period value="1"/>
        <periodUnits value="d"/>
      </repeat>
      
    </timing>
    <doseQuantity>
      <value value="1"/>
      <unit value="{tablet}"/>
      <system value="http://unitsofmeasure.org"/>
      <code value="{tablet}"/>
    </doseQuantity>
    
    <text value="1 bid"/>
  </dosageInstruction>
  <dispenseRequest>
     <numberOfRepeatsAllowed value="1"/>
     
     <quantity>
        <value value="90"/>
        <unit value="{tablet}"/>
        <system value="http://unitsofmeasure.org"/>
        <code value="{tablet}"/>
     </quantity>
     
     <expectedSupplyDuration>
        <value value="90"/>
        <unit value="days"/>
        <system value="http://unitsofmeasure.org"/>
        <code value="d"/>
     </expectedSupplyDuration>
     
  </dispenseRequest>
  
</MedicationOrder>

  </resource>
  <request>
    <method value="PUT"/>
    <url value="MedicationOrder/smart-MedicationOrder-182"/>
  </request>
</entry>
<entry>
  <resource>
    
    
<MedicationDispense>
  <meta>
      <tag>
          <system value="https://smarthealthit.org/tags"/>
          <code value="smart-8-2017"/>
      </tag>
  </meta>
  <id value="smart-MedicationDispense-62"/>
  <!--  insert contents here  -->
   <text>
    <status value="generated"/>
    <div xmlns="http://www.w3.org/1999/xhtml">
      Dispensed 90 tablets = 90 day supply of Ranitidine 150 MG Oral Tablet
    </div>
  </text>

  <status value="completed"/>

  <patient>
    <reference value="Patient/smart-1642068"/>
  </patient>

  <authorizingPrescription>
    <reference value="MedicationOrder/smart-MedicationOrder-182"/>
  </authorizingPrescription>

  <quantity>
      <value value="90"/>
      <unit value="tablets"/>
      <system value="http://unitsofmeasure.org"/>
      <code value="{tablets}"/>
  </quantity>

  <daysSupply>
      <value value="90" />
      <unit value="days" />
      <system value="http://unitsofmeasure.org" />
      <code value="d" />
  </daysSupply>

  <medicationCodeableConcept>
    <coding>
        <system value="http://www.nlm.nih.gov/research/umls/rxnorm"/>
        <code value="198191"/>
        <display value="Ranitidine 150 MG Oral Tablet"/>
    </coding>
    <text value="Ranitidine 150 MG Oral Tablet"/>
  </medicationCodeableConcept>

  <whenHandedOver value="2008-09-25"/>

</MedicationDispense>

  </resource>
  <request>
    <method value="PUT"/>
    <url value="MedicationDispense/smart-MedicationDispense-62"/>
  </request>
</entry>
<entry>
  <resource>
    
    
<MedicationDispense>
  <meta>
      <tag>
          <system value="https://smarthealthit.org/tags"/>
          <code value="smart-8-2017"/>
      </tag>
  </meta>
  <id value="smart-MedicationDispense-64"/>
  <!--  insert contents here  -->
   <text>
    <status value="generated"/>
    <div xmlns="http://www.w3.org/1999/xhtml">
      Dispensed 90 tablets = 90 day supply of Ranitidine 150 MG Oral Tablet
    </div>
  </text>

  <status value="completed"/>

  <patient>
    <reference value="Patient/smart-1642068"/>
  </patient>

  <authorizingPrescription>
    <reference value="MedicationOrder/smart-MedicationOrder-182"/>
  </authorizingPrescription>

  <quantity>
      <value value="90"/>
      <unit value="tablets"/>
      <system value="http://unitsofmeasure.org"/>
      <code value="{tablets}"/>
  </quantity>

  <daysSupply>
      <value value="90" />
      <unit value="days" />
      <system value="http://unitsofmeasure.org" />
      <code value="d" />
  </daysSupply>

  <medicationCodeableConcept>
    <coding>
        <system value="http://www.nlm.nih.gov/research/umls/rxnorm"/>
        <code value="198191"/>
        <display value="Ranitidine 150 MG Oral Tablet"/>
    </coding>
    <text value="Ranitidine 150 MG Oral Tablet"/>
  </medicationCodeableConcept>

  <whenHandedOver value="2009-03-19"/>

</MedicationDispense>

  </resource>
  <request>
    <method value="PUT"/>
    <url value="MedicationDispense/smart-MedicationDispense-64"/>
  </request>
</entry>
<entry>
  <resource>
    
    
<MedicationDispense>
  <meta>
      <tag>
          <system value="https://smarthealthit.org/tags"/>
          <code value="smart-8-2017"/>
      </tag>
  </meta>
  <id value="smart-MedicationDispense-63"/>
  <!--  insert contents here  -->
   <text>
    <status value="generated"/>
    <div xmlns="http://www.w3.org/1999/xhtml">
      Dispensed 90 tablets = 90 day supply of Ranitidine 150 MG Oral Tablet
    </div>
  </text>

  <status value="completed"/>

  <patient>
    <reference value="Patient/smart-1642068"/>
  </patient>

  <authorizingPrescription>
    <reference value="MedicationOrder/smart-MedicationOrder-182"/>
  </authorizingPrescription>

  <quantity>
      <value value="90"/>
      <unit value="tablets"/>
      <system value="http://unitsofmeasure.org"/>
      <code value="{tablets}"/>
  </quantity>

  <daysSupply>
      <value value="90" />
      <unit value="days" />
      <system value="http://unitsofmeasure.org" />
      <code value="d" />
  </daysSupply>

  <medicationCodeableConcept>
    <coding>
        <system value="http://www.nlm.nih.gov/research/umls/rxnorm"/>
        <code value="198191"/>
        <display value="Ranitidine 150 MG Oral Tablet"/>
    </coding>
    <text value="Ranitidine 150 MG Oral Tablet"/>
  </medicationCodeableConcept>

  <whenHandedOver value="2008-12-20"/>

</MedicationDispense>

  </resource>
  <request>
    <method value="PUT"/>
    <url value="MedicationDispense/smart-MedicationDispense-63"/>
  </request>
</entry>
<entry>
  <resource>
    
    
<MedicationDispense>
  <meta>
      <tag>
          <system value="https://smarthealthit.org/tags"/>
          <code value="smart-8-2017"/>
      </tag>
  </meta>
  <id value="smart-MedicationDispense-65"/>
  <!--  insert contents here  -->
   <text>
    <status value="generated"/>
    <div xmlns="http://www.w3.org/1999/xhtml">
      Dispensed 90 tablets = 90 day supply of Ranitidine 150 MG Oral Tablet
    </div>
  </text>

  <status value="completed"/>

  <patient>
    <reference value="Patient/smart-1642068"/>
  </patient>

  <authorizingPrescription>
    <reference value="MedicationOrder/smart-MedicationOrder-182"/>
  </authorizingPrescription>

  <quantity>
      <value value="90"/>
      <unit value="tablets"/>
      <system value="http://unitsofmeasure.org"/>
      <code value="{tablets}"/>
  </quantity>

  <daysSupply>
      <value value="90" />
      <unit value="days" />
      <system value="http://unitsofmeasure.org" />
      <code value="d" />
  </daysSupply>

  <medicationCodeableConcept>
    <coding>
        <system value="http://www.nlm.nih.gov/research/umls/rxnorm"/>
        <code value="198191"/>
        <display value="Ranitidine 150 MG Oral Tablet"/>
    </coding>
    <text value="Ranitidine 150 MG Oral Tablet"/>
  </medicationCodeableConcept>

  <whenHandedOver value="2009-06-18"/>

</MedicationDispense>

  </resource>
  <request>
    <method value="PUT"/>
    <url value="MedicationDispense/smart-MedicationDispense-65"/>
  </request>
</entry>
<entry>
  <resource>
    
    
<MedicationDispense>
  <meta>
      <tag>
          <system value="https://smarthealthit.org/tags"/>
          <code value="smart-8-2017"/>
      </tag>
  </meta>
  <id value="smart-MedicationDispense-66"/>
  <!--  insert contents here  -->
   <text>
    <status value="generated"/>
    <div xmlns="http://www.w3.org/1999/xhtml">
      Dispensed 90 tablets = 90 day supply of Ranitidine 150 MG Oral Tablet
    </div>
  </text>

  <status value="completed"/>

  <patient>
    <reference value="Patient/smart-1642068"/>
  </patient>

  <authorizingPrescription>
    <reference value="MedicationOrder/smart-MedicationOrder-182"/>
  </authorizingPrescription>

  <quantity>
      <value value="90"/>
      <unit value="tablets"/>
      <system value="http://unitsofmeasure.org"/>
      <code value="{tablets}"/>
  </quantity>

  <daysSupply>
      <value value="90" />
      <unit value="days" />
      <system value="http://unitsofmeasure.org" />
      <code value="d" />
  </daysSupply>

  <medicationCodeableConcept>
    <coding>
        <system value="http://www.nlm.nih.gov/research/umls/rxnorm"/>
        <code value="198191"/>
        <display value="Ranitidine 150 MG Oral Tablet"/>
    </coding>
    <text value="Ranitidine 150 MG Oral Tablet"/>
  </medicationCodeableConcept>

  <whenHandedOver value="2009-09-17"/>

</MedicationDispense>

  </resource>
  <request>
    <method value="PUT"/>
    <url value="MedicationDispense/smart-MedicationDispense-66"/>
  </request>
</entry>
<entry>
  <resource>
    
    
<MedicationOrder>
  <meta>
      <tag>
          <system value="https://smarthealthit.org/tags"/>
          <code value="smart-8-2017"/>
      </tag>
  </meta>
  <id value="smart-MedicationOrder-183"/>
  <text>
    <status value="generated"/>
    <div xmlns="http://www.w3.org/1999/xhtml">
      Alendronate 70 MG Oral Tablet (rxnorm: 617264)
    </div>
  </text>

  <status value="active" />
  <patient>
    <reference value="Patient/smart-1642068"/>
  </patient>

  <medicationCodeableConcept>
    <coding>
        <system value="http://www.nlm.nih.gov/research/umls/rxnorm"/>
        <code value="617264"/>
        <display value="Alendronate 70 MG Oral Tablet"/>
    </coding>
    <text value="Alendronate 70 MG Oral Tablet"/>
  </medicationCodeableConcept>

  <dosageInstruction>
    <timing>
      <repeat>
        <boundsPeriod>
          <start value="2008-09-25"/>
        </boundsPeriod>
        <frequency value="1"/>
        <period value="1"/>
        <periodUnits value="wk"/>
      </repeat>
      
    </timing>
    <doseQuantity>
      <value value="1"/>
      <unit value="{tablet}"/>
      <system value="http://unitsofmeasure.org"/>
      <code value="{tablet}"/>
    </doseQuantity>
    
    <text value="1 weekly"/>
  </dosageInstruction>
  <dispenseRequest>
     <numberOfRepeatsAllowed value="1"/>
     
     <quantity>
        <value value="12"/>
        <unit value="{tablet}"/>
        <system value="http://unitsofmeasure.org"/>
        <code value="{tablet}"/>
     </quantity>
     
     <expectedSupplyDuration>
        <value value="90"/>
        <unit value="days"/>
        <system value="http://unitsofmeasure.org"/>
        <code value="d"/>
     </expectedSupplyDuration>
     
  </dispenseRequest>
  
</MedicationOrder>

  </resource>
  <request>
    <method value="PUT"/>
    <url value="MedicationOrder/smart-MedicationOrder-183"/>
  </request>
</entry>
<entry>
  <resource>
    
    
<MedicationDispense>
  <meta>
      <tag>
          <system value="https://smarthealthit.org/tags"/>
          <code value="smart-8-2017"/>
      </tag>
  </meta>
  <id value="smart-MedicationDispense-69"/>
  <!--  insert contents here  -->
   <text>
    <status value="generated"/>
    <div xmlns="http://www.w3.org/1999/xhtml">
      Dispensed 12 tablets = 90 day supply of Alendronate 70 MG Oral Tablet
    </div>
  </text>

  <status value="completed"/>

  <patient>
    <reference value="Patient/smart-1642068"/>
  </patient>

  <authorizingPrescription>
    <reference value="MedicationOrder/smart-MedicationOrder-183"/>
  </authorizingPrescription>

  <quantity>
      <value value="12"/>
      <unit value="tablets"/>
      <system value="http://unitsofmeasure.org"/>
      <code value="{tablets}"/>
  </quantity>

  <daysSupply>
      <value value="90" />
      <unit value="days" />
      <system value="http://unitsofmeasure.org" />
      <code value="d" />
  </daysSupply>

  <medicationCodeableConcept>
    <coding>
        <system value="http://www.nlm.nih.gov/research/umls/rxnorm"/>
        <code value="617264"/>
        <display value="Alendronate 70 MG Oral Tablet"/>
    </coding>
    <text value="Alendronate 70 MG Oral Tablet"/>
  </medicationCodeableConcept>

  <whenHandedOver value="2009-03-14"/>

</MedicationDispense>

  </resource>
  <request>
    <method value="PUT"/>
    <url value="MedicationDispense/smart-MedicationDispense-69"/>
  </request>
</entry>
<entry>
  <resource>
    
    
<MedicationDispense>
  <meta>
      <tag>
          <system value="https://smarthealthit.org/tags"/>
          <code value="smart-8-2017"/>
      </tag>
  </meta>
  <id value="smart-MedicationDispense-68"/>
  <!--  insert contents here  -->
   <text>
    <status value="generated"/>
    <div xmlns="http://www.w3.org/1999/xhtml">
      Dispensed 12 tablets = 90 day supply of Alendronate 70 MG Oral Tablet
    </div>
  </text>

  <status value="completed"/>

  <patient>
    <reference value="Patient/smart-1642068"/>
  </patient>

  <authorizingPrescription>
    <reference value="MedicationOrder/smart-MedicationOrder-183"/>
  </authorizingPrescription>

  <quantity>
      <value value="12"/>
      <unit value="tablets"/>
      <system value="http://unitsofmeasure.org"/>
      <code value="{tablets}"/>
  </quantity>

  <daysSupply>
      <value value="90" />
      <unit value="days" />
      <system value="http://unitsofmeasure.org" />
      <code value="d" />
  </daysSupply>

  <medicationCodeableConcept>
    <coding>
        <system value="http://www.nlm.nih.gov/research/umls/rxnorm"/>
        <code value="617264"/>
        <display value="Alendronate 70 MG Oral Tablet"/>
    </coding>
    <text value="Alendronate 70 MG Oral Tablet"/>
  </medicationCodeableConcept>

  <whenHandedOver value="2008-12-18"/>

</MedicationDispense>

  </resource>
  <request>
    <method value="PUT"/>
    <url value="MedicationDispense/smart-MedicationDispense-68"/>
  </request>
</entry>
<entry>
  <resource>
    
    
<MedicationDispense>
  <meta>
      <tag>
          <system value="https://smarthealthit.org/tags"/>
          <code value="smart-8-2017"/>
      </tag>
  </meta>
  <id value="smart-MedicationDispense-71"/>
  <!--  insert contents here  -->
   <text>
    <status value="generated"/>
    <div xmlns="http://www.w3.org/1999/xhtml">
      Dispensed 12 tablets = 90 day supply of Alendronate 70 MG Oral Tablet
    </div>
  </text>

  <status value="completed"/>

  <patient>
    <reference value="Patient/smart-1642068"/>
  </patient>

  <authorizingPrescription>
    <reference value="MedicationOrder/smart-MedicationOrder-183"/>
  </authorizingPrescription>

  <quantity>
      <value value="12"/>
      <unit value="tablets"/>
      <system value="http://unitsofmeasure.org"/>
      <code value="{tablets}"/>
  </quantity>

  <daysSupply>
      <value value="90" />
      <unit value="days" />
      <system value="http://unitsofmeasure.org" />
      <code value="d" />
  </daysSupply>

  <medicationCodeableConcept>
    <coding>
        <system value="http://www.nlm.nih.gov/research/umls/rxnorm"/>
        <code value="617264"/>
        <display value="Alendronate 70 MG Oral Tablet"/>
    </coding>
    <text value="Alendronate 70 MG Oral Tablet"/>
  </medicationCodeableConcept>

  <whenHandedOver value="2009-09-03"/>

</MedicationDispense>

  </resource>
  <request>
    <method value="PUT"/>
    <url value="MedicationDispense/smart-MedicationDispense-71"/>
  </request>
</entry>
<entry>
  <resource>
    
    
<MedicationDispense>
  <meta>
      <tag>
          <system value="https://smarthealthit.org/tags"/>
          <code value="smart-8-2017"/>
      </tag>
  </meta>
  <id value="smart-MedicationDispense-67"/>
  <!--  insert contents here  -->
   <text>
    <status value="generated"/>
    <div xmlns="http://www.w3.org/1999/xhtml">
      Dispensed 12 tablets = 90 day supply of Alendronate 70 MG Oral Tablet
    </div>
  </text>

  <status value="completed"/>

  <patient>
    <reference value="Patient/smart-1642068"/>
  </patient>

  <authorizingPrescription>
    <reference value="MedicationOrder/smart-MedicationOrder-183"/>
  </authorizingPrescription>

  <quantity>
      <value value="12"/>
      <unit value="tablets"/>
      <system value="http://unitsofmeasure.org"/>
      <code value="{tablets}"/>
  </quantity>

  <daysSupply>
      <value value="90" />
      <unit value="days" />
      <system value="http://unitsofmeasure.org" />
      <code value="d" />
  </daysSupply>

  <medicationCodeableConcept>
    <coding>
        <system value="http://www.nlm.nih.gov/research/umls/rxnorm"/>
        <code value="617264"/>
        <display value="Alendronate 70 MG Oral Tablet"/>
    </coding>
    <text value="Alendronate 70 MG Oral Tablet"/>
  </medicationCodeableConcept>

  <whenHandedOver value="2008-09-25"/>

</MedicationDispense>

  </resource>
  <request>
    <method value="PUT"/>
    <url value="MedicationDispense/smart-MedicationDispense-67"/>
  </request>
</entry>
<entry>
  <resource>
    
    
<MedicationDispense>
  <meta>
      <tag>
          <system value="https://smarthealthit.org/tags"/>
          <code value="smart-8-2017"/>
      </tag>
  </meta>
  <id value="smart-MedicationDispense-70"/>
  <!--  insert contents here  -->
   <text>
    <status value="generated"/>
    <div xmlns="http://www.w3.org/1999/xhtml">
      Dispensed 12 tablets = 90 day supply of Alendronate 70 MG Oral Tablet
    </div>
  </text>

  <status value="completed"/>

  <patient>
    <reference value="Patient/smart-1642068"/>
  </patient>

  <authorizingPrescription>
    <reference value="MedicationOrder/smart-MedicationOrder-183"/>
  </authorizingPrescription>

  <quantity>
      <value value="12"/>
      <unit value="tablets"/>
      <system value="http://unitsofmeasure.org"/>
      <code value="{tablets}"/>
  </quantity>

  <daysSupply>
      <value value="90" />
      <unit value="days" />
      <system value="http://unitsofmeasure.org" />
      <code value="d" />
  </daysSupply>

  <medicationCodeableConcept>
    <coding>
        <system value="http://www.nlm.nih.gov/research/umls/rxnorm"/>
        <code value="617264"/>
        <display value="Alendronate 70 MG Oral Tablet"/>
    </coding>
    <text value="Alendronate 70 MG Oral Tablet"/>
  </medicationCodeableConcept>

  <whenHandedOver value="2009-06-04"/>

</MedicationDispense>

  </resource>
  <request>
    <method value="PUT"/>
    <url value="MedicationDispense/smart-MedicationDispense-70"/>
  </request>
</entry>
<entry>
  <resource>
    
    
<MedicationOrder>
  <meta>
      <tag>
          <system value="https://smarthealthit.org/tags"/>
          <code value="smart-8-2017"/>
      </tag>
  </meta>
  <id value="smart-MedicationOrder-184"/>
  <text>
    <status value="generated"/>
    <div xmlns="http://www.w3.org/1999/xhtml">
      Simvastatin 20 MG Oral Tablet (rxnorm: 312961)
    </div>
  </text>

  <status value="active" />
  <patient>
    <reference value="Patient/smart-1642068"/>
  </patient>

  <medicationCodeableConcept>
    <coding>
        <system value="http://www.nlm.nih.gov/research/umls/rxnorm"/>
        <code value="312961"/>
        <display value="Simvastatin 20 MG Oral Tablet"/>
    </coding>
    <text value="Simvastatin 20 MG Oral Tablet"/>
  </medicationCodeableConcept>

  <dosageInstruction>
    <timing>
      <repeat>
        <boundsPeriod>
          <start value="2008-10-02"/>
        </boundsPeriod>
        <frequency value="1"/>
        <period value="1"/>
        <periodUnits value="d"/>
      </repeat>
      
    </timing>
    <doseQuantity>
      <value value="1"/>
      <unit value="{tablet}"/>
      <system value="http://unitsofmeasure.org"/>
      <code value="{tablet}"/>
    </doseQuantity>
    
    <text value="1 qhs"/>
  </dosageInstruction>
  <dispenseRequest>
     <numberOfRepeatsAllowed value="1"/>
     
     <quantity>
        <value value="90"/>
        <unit value="{tablet}"/>
        <system value="http://unitsofmeasure.org"/>
        <code value="{tablet}"/>
     </quantity>
     
     <expectedSupplyDuration>
        <value value="90"/>
        <unit value="days"/>
        <system value="http://unitsofmeasure.org"/>
        <code value="d"/>
     </expectedSupplyDuration>
     
  </dispenseRequest>
  
</MedicationOrder>

  </resource>
  <request>
    <method value="PUT"/>
    <url value="MedicationOrder/smart-MedicationOrder-184"/>
  </request>
</entry>
<entry>
  <resource>
    
    
<MedicationDispense>
  <meta>
      <tag>
          <system value="https://smarthealthit.org/tags"/>
          <code value="smart-8-2017"/>
      </tag>
  </meta>
  <id value="smart-MedicationDispense-88"/>
  <!--  insert contents here  -->
   <text>
    <status value="generated"/>
    <div xmlns="http://www.w3.org/1999/xhtml">
      Dispensed 90 tablets = 90 day supply of Simvastatin 20 MG Oral Tablet
    </div>
  </text>

  <status value="completed"/>

  <patient>
    <reference value="Patient/smart-1642068"/>
  </patient>

  <authorizingPrescription>
    <reference value="MedicationOrder/smart-MedicationOrder-184"/>
  </authorizingPrescription>

  <quantity>
      <value value="90"/>
      <unit value="tablets"/>
      <system value="http://unitsofmeasure.org"/>
      <code value="{tablets}"/>
  </quantity>

  <daysSupply>
      <value value="90" />
      <unit value="days" />
      <system value="http://unitsofmeasure.org" />
      <code value="d" />
  </daysSupply>

  <medicationCodeableConcept>
    <coding>
        <system value="http://www.nlm.nih.gov/research/umls/rxnorm"/>
        <code value="312961"/>
        <display value="Simvastatin 20 MG Oral Tablet"/>
    </coding>
    <text value="Simvastatin 20 MG Oral Tablet"/>
  </medicationCodeableConcept>

  <whenHandedOver value="2009-07-09"/>

</MedicationDispense>

  </resource>
  <request>
    <method value="PUT"/>
    <url value="MedicationDispense/smart-MedicationDispense-88"/>
  </request>
</entry>
<entry>
  <resource>
    
    
<MedicationDispense>
  <meta>
      <tag>
          <system value="https://smarthealthit.org/tags"/>
          <code value="smart-8-2017"/>
      </tag>
  </meta>
  <id value="smart-MedicationDispense-85"/>
  <!--  insert contents here  -->
   <text>
    <status value="generated"/>
    <div xmlns="http://www.w3.org/1999/xhtml">
      Dispensed 90 tablets = 90 day supply of Simvastatin 20 MG Oral Tablet
    </div>
  </text>

  <status value="completed"/>

  <patient>
    <reference value="Patient/smart-1642068"/>
  </patient>

  <authorizingPrescription>
    <reference value="MedicationOrder/smart-MedicationOrder-184"/>
  </authorizingPrescription>

  <quantity>
      <value value="90"/>
      <unit value="tablets"/>
      <system value="http://unitsofmeasure.org"/>
      <code value="{tablets}"/>
  </quantity>

  <daysSupply>
      <value value="90" />
      <unit value="days" />
      <system value="http://unitsofmeasure.org" />
      <code value="d" />
  </daysSupply>

  <medicationCodeableConcept>
    <coding>
        <system value="http://www.nlm.nih.gov/research/umls/rxnorm"/>
        <code value="312961"/>
        <display value="Simvastatin 20 MG Oral Tablet"/>
    </coding>
    <text value="Simvastatin 20 MG Oral Tablet"/>
  </medicationCodeableConcept>

  <whenHandedOver value="2008-10-02"/>

</MedicationDispense>

  </resource>
  <request>
    <method value="PUT"/>
    <url value="MedicationDispense/smart-MedicationDispense-85"/>
  </request>
</entry>
<entry>
  <resource>
    
    
<MedicationDispense>
  <meta>
      <tag>
          <system value="https://smarthealthit.org/tags"/>
          <code value="smart-8-2017"/>
      </tag>
  </meta>
  <id value="smart-MedicationDispense-86"/>
  <!--  insert contents here  -->
   <text>
    <status value="generated"/>
    <div xmlns="http://www.w3.org/1999/xhtml">
      Dispensed 90 tablets = 90 day supply of Simvastatin 20 MG Oral Tablet
    </div>
  </text>

  <status value="completed"/>

  <patient>
    <reference value="Patient/smart-1642068"/>
  </patient>

  <authorizingPrescription>
    <reference value="MedicationOrder/smart-MedicationOrder-184"/>
  </authorizingPrescription>

  <quantity>
      <value value="90"/>
      <unit value="tablets"/>
      <system value="http://unitsofmeasure.org"/>
      <code value="{tablets}"/>
  </quantity>

  <daysSupply>
      <value value="90" />
      <unit value="days" />
      <system value="http://unitsofmeasure.org" />
      <code value="d" />
  </daysSupply>

  <medicationCodeableConcept>
    <coding>
        <system value="http://www.nlm.nih.gov/research/umls/rxnorm"/>
        <code value="312961"/>
        <display value="Simvastatin 20 MG Oral Tablet"/>
    </coding>
    <text value="Simvastatin 20 MG Oral Tablet"/>
  </medicationCodeableConcept>

  <whenHandedOver value="2008-12-26"/>

</MedicationDispense>

  </resource>
  <request>
    <method value="PUT"/>
    <url value="MedicationDispense/smart-MedicationDispense-86"/>
  </request>
</entry>
<entry>
  <resource>
    
    
<MedicationDispense>
  <meta>
      <tag>
          <system value="https://smarthealthit.org/tags"/>
          <code value="smart-8-2017"/>
      </tag>
  </meta>
  <id value="smart-MedicationDispense-87"/>
  <!--  insert contents here  -->
   <text>
    <status value="generated"/>
    <div xmlns="http://www.w3.org/1999/xhtml">
      Dispensed 90 tablets = 90 day supply of Simvastatin 20 MG Oral Tablet
    </div>
  </text>

  <status value="completed"/>

  <patient>
    <reference value="Patient/smart-1642068"/>
  </patient>

  <authorizingPrescription>
    <reference value="MedicationOrder/smart-MedicationOrder-184"/>
  </authorizingPrescription>

  <quantity>
      <value value="90"/>
      <unit value="tablets"/>
      <system value="http://unitsofmeasure.org"/>
      <code value="{tablets}"/>
  </quantity>

  <daysSupply>
      <value value="90" />
      <unit value="days" />
      <system value="http://unitsofmeasure.org" />
      <code value="d" />
  </daysSupply>

  <medicationCodeableConcept>
    <coding>
        <system value="http://www.nlm.nih.gov/research/umls/rxnorm"/>
        <code value="312961"/>
        <display value="Simvastatin 20 MG Oral Tablet"/>
    </coding>
    <text value="Simvastatin 20 MG Oral Tablet"/>
  </medicationCodeableConcept>

  <whenHandedOver value="2009-04-04"/>

</MedicationDispense>

  </resource>
  <request>
    <method value="PUT"/>
    <url value="MedicationDispense/smart-MedicationDispense-87"/>
  </request>
</entry>
<entry>
  <resource>
    
    
<MedicationOrder>
  <meta>
      <tag>
          <system value="https://smarthealthit.org/tags"/>
          <code value="smart-8-2017"/>
      </tag>
  </meta>
  <id value="smart-MedicationOrder-185"/>
  <text>
    <status value="generated"/>
    <div xmlns="http://www.w3.org/1999/xhtml">
      Diclofenac 75 MG / Misoprostol 0.2 MG Enteric Coated Tablet [Arthrotec 75/200] (rxnorm: 855918)
    </div>
  </text>

  <status value="active" />
  <patient>
    <reference value="Patient/smart-1642068"/>
  </patient>

  <medicationCodeableConcept>
    <coding>
        <system value="http://www.nlm.nih.gov/research/umls/rxnorm"/>
        <code value="855918"/>
        <display value="Diclofenac 75 MG / Misoprostol 0.2 MG Enteric Coated Tablet [Arthrotec 75/200]"/>
    </coding>
    <text value="Diclofenac 75 MG / Misoprostol 0.2 MG Enteric Coated Tablet [Arthrotec 75/200]"/>
  </medicationCodeableConcept>

  <dosageInstruction>
    <timing>
      <repeat>
        <boundsPeriod>
          <start value="2008-10-24"/>
        </boundsPeriod>
        <frequency value="2"/>
        <period value="1"/>
        <periodUnits value="d"/>
      </repeat>
      
    </timing>
    <doseQuantity>
      <value value="1"/>
      <unit value="{tablet}"/>
      <system value="http://unitsofmeasure.org"/>
      <code value="{tablet}"/>
    </doseQuantity>
    
    <asNeededBoolean value="true"/>
    
    <text value="1 bid prn pain"/>
  </dosageInstruction>
  <dispenseRequest>
     <numberOfRepeatsAllowed value="1"/>
     
     <quantity>
        <value value="270"/>
        <unit value="{tablet}"/>
        <system value="http://unitsofmeasure.org"/>
        <code value="{tablet}"/>
     </quantity>
     
     <expectedSupplyDuration>
        <value value="90"/>
        <unit value="days"/>
        <system value="http://unitsofmeasure.org"/>
        <code value="d"/>
     </expectedSupplyDuration>
     
  </dispenseRequest>
  
</MedicationOrder>

  </resource>
  <request>
    <method value="PUT"/>
    <url value="MedicationOrder/smart-MedicationOrder-185"/>
  </request>
</entry>
<entry>
  <resource>
    
    
<MedicationDispense>
  <meta>
      <tag>
          <system value="https://smarthealthit.org/tags"/>
          <code value="smart-8-2017"/>
      </tag>
  </meta>
  <id value="smart-MedicationDispense-84"/>
  <!--  insert contents here  -->
   <text>
    <status value="generated"/>
    <div xmlns="http://www.w3.org/1999/xhtml">
      Dispensed 270 tablets = 90 day supply of Diclofenac 75 MG / Misoprostol 0.2 MG Enteric Coated Tablet [Arthrotec 75/200]
    </div>
  </text>

  <status value="completed"/>

  <patient>
    <reference value="Patient/smart-1642068"/>
  </patient>

  <authorizingPrescription>
    <reference value="MedicationOrder/smart-MedicationOrder-185"/>
  </authorizingPrescription>

  <quantity>
      <value value="270"/>
      <unit value="tablets"/>
      <system value="http://unitsofmeasure.org"/>
      <code value="{tablets}"/>
  </quantity>

  <daysSupply>
      <value value="90" />
      <unit value="days" />
      <system value="http://unitsofmeasure.org" />
      <code value="d" />
  </daysSupply>

  <medicationCodeableConcept>
    <coding>
        <system value="http://www.nlm.nih.gov/research/umls/rxnorm"/>
        <code value="855918"/>
        <display value="Diclofenac 75 MG / Misoprostol 0.2 MG Enteric Coated Tablet [Arthrotec 75/200]"/>
    </coding>
    <text value="Diclofenac 75 MG / Misoprostol 0.2 MG Enteric Coated Tablet [Arthrotec 75/200]"/>
  </medicationCodeableConcept>

  <whenHandedOver value="2009-09-03"/>

</MedicationDispense>

  </resource>
  <request>
    <method value="PUT"/>
    <url value="MedicationDispense/smart-MedicationDispense-84"/>
  </request>
</entry>
<entry>
  <resource>
    
    
<MedicationDispense>
  <meta>
      <tag>
          <system value="https://smarthealthit.org/tags"/>
          <code value="smart-8-2017"/>
      </tag>
  </meta>
  <id value="smart-MedicationDispense-81"/>
  <!--  insert contents here  -->
   <text>
    <status value="generated"/>
    <div xmlns="http://www.w3.org/1999/xhtml">
      Dispensed 270 tablets = 90 day supply of Diclofenac 75 MG / Misoprostol 0.2 MG Enteric Coated Tablet [Arthrotec 75/200]
    </div>
  </text>

  <status value="completed"/>

  <patient>
    <reference value="Patient/smart-1642068"/>
  </patient>

  <authorizingPrescription>
    <reference value="MedicationOrder/smart-MedicationOrder-185"/>
  </authorizingPrescription>

  <quantity>
      <value value="270"/>
      <unit value="tablets"/>
      <system value="http://unitsofmeasure.org"/>
      <code value="{tablets}"/>
  </quantity>

  <daysSupply>
      <value value="90" />
      <unit value="days" />
      <system value="http://unitsofmeasure.org" />
      <code value="d" />
  </daysSupply>

  <medicationCodeableConcept>
    <coding>
        <system value="http://www.nlm.nih.gov/research/umls/rxnorm"/>
        <code value="855918"/>
        <display value="Diclofenac 75 MG / Misoprostol 0.2 MG Enteric Coated Tablet [Arthrotec 75/200]"/>
    </coding>
    <text value="Diclofenac 75 MG / Misoprostol 0.2 MG Enteric Coated Tablet [Arthrotec 75/200]"/>
  </medicationCodeableConcept>

  <whenHandedOver value="2008-10-24"/>

</MedicationDispense>

  </resource>
  <request>
    <method value="PUT"/>
    <url value="MedicationDispense/smart-MedicationDispense-81"/>
  </request>
</entry>
<entry>
  <resource>
    
    
<MedicationDispense>
  <meta>
      <tag>
          <system value="https://smarthealthit.org/tags"/>
          <code value="smart-8-2017"/>
      </tag>
  </meta>
  <id value="smart-MedicationDispense-83"/>
  <!--  insert contents here  -->
   <text>
    <status value="generated"/>
    <div xmlns="http://www.w3.org/1999/xhtml">
      Dispensed 270 tablets = 90 day supply of Diclofenac 75 MG / Misoprostol 0.2 MG Enteric Coated Tablet [Arthrotec 75/200]
    </div>
  </text>

  <status value="completed"/>

  <patient>
    <reference value="Patient/smart-1642068"/>
  </patient>

  <authorizingPrescription>
    <reference value="MedicationOrder/smart-MedicationOrder-185"/>
  </authorizingPrescription>

  <quantity>
      <value value="270"/>
      <unit value="tablets"/>
      <system value="http://unitsofmeasure.org"/>
      <code value="{tablets}"/>
  </quantity>

  <daysSupply>
      <value value="90" />
      <unit value="days" />
      <system value="http://unitsofmeasure.org" />
      <code value="d" />
  </daysSupply>

  <medicationCodeableConcept>
    <coding>
        <system value="http://www.nlm.nih.gov/research/umls/rxnorm"/>
        <code value="855918"/>
        <display value="Diclofenac 75 MG / Misoprostol 0.2 MG Enteric Coated Tablet [Arthrotec 75/200]"/>
    </coding>
    <text value="Diclofenac 75 MG / Misoprostol 0.2 MG Enteric Coated Tablet [Arthrotec 75/200]"/>
  </medicationCodeableConcept>

  <whenHandedOver value="2009-05-02"/>

</MedicationDispense>

  </resource>
  <request>
    <method value="PUT"/>
    <url value="MedicationDispense/smart-MedicationDispense-83"/>
  </request>
</entry>
<entry>
  <resource>
    
    
<MedicationDispense>
  <meta>
      <tag>
          <system value="https://smarthealthit.org/tags"/>
          <code value="smart-8-2017"/>
      </tag>
  </meta>
  <id value="smart-MedicationDispense-82"/>
  <!--  insert contents here  -->
   <text>
    <status value="generated"/>
    <div xmlns="http://www.w3.org/1999/xhtml">
      Dispensed 270 tablets = 90 day supply of Diclofenac 75 MG / Misoprostol 0.2 MG Enteric Coated Tablet [Arthrotec 75/200]
    </div>
  </text>

  <status value="completed"/>

  <patient>
    <reference value="Patient/smart-1642068"/>
  </patient>

  <authorizingPrescription>
    <reference value="MedicationOrder/smart-MedicationOrder-185"/>
  </authorizingPrescription>

  <quantity>
      <value value="270"/>
      <unit value="tablets"/>
      <system value="http://unitsofmeasure.org"/>
      <code value="{tablets}"/>
  </quantity>

  <daysSupply>
      <value value="90" />
      <unit value="days" />
      <system value="http://unitsofmeasure.org" />
      <code value="d" />
  </daysSupply>

  <medicationCodeableConcept>
    <coding>
        <system value="http://www.nlm.nih.gov/research/umls/rxnorm"/>
        <code value="855918"/>
        <display value="Diclofenac 75 MG / Misoprostol 0.2 MG Enteric Coated Tablet [Arthrotec 75/200]"/>
    </coding>
    <text value="Diclofenac 75 MG / Misoprostol 0.2 MG Enteric Coated Tablet [Arthrotec 75/200]"/>
  </medicationCodeableConcept>

  <whenHandedOver value="2009-01-18"/>

</MedicationDispense>

  </resource>
  <request>
    <method value="PUT"/>
    <url value="MedicationDispense/smart-MedicationDispense-82"/>
  </request>
</entry>
<entry>
  <resource>
    
    
<MedicationOrder>
  <meta>
      <tag>
          <system value="https://smarthealthit.org/tags"/>
          <code value="smart-8-2017"/>
      </tag>
  </meta>
  <id value="smart-MedicationOrder-186"/>
  <text>
    <status value="generated"/>
    <div xmlns="http://www.w3.org/1999/xhtml">
      Hydrochlorothiazide 12.5 MG / Lisinopril 20 MG Oral Tablet (rxnorm: 197886)
    </div>
  </text>

  <status value="active" />
  <patient>
    <reference value="Patient/smart-1642068"/>
  </patient>

  <medicationCodeableConcept>
    <coding>
        <system value="http://www.nlm.nih.gov/research/umls/rxnorm"/>
        <code value="197886"/>
        <display value="Hydrochlorothiazide 12.5 MG / Lisinopril 20 MG Oral Tablet"/>
    </coding>
    <text value="Hydrochlorothiazide 12.5 MG / Lisinopril 20 MG Oral Tablet"/>
  </medicationCodeableConcept>

  <dosageInstruction>
    <timing>
      <repeat>
        <boundsPeriod>
          <start value="2008-12-01"/>
        </boundsPeriod>
        <frequency value="1"/>
        <period value="1"/>
        <periodUnits value="d"/>
      </repeat>
      
    </timing>
    <doseQuantity>
      <value value="1"/>
      <unit value="{tablet}"/>
      <system value="http://unitsofmeasure.org"/>
      <code value="{tablet}"/>
    </doseQuantity>
    
    <text value="1 daily"/>
  </dosageInstruction>
  <dispenseRequest>
     <numberOfRepeatsAllowed value="1"/>
     
     <quantity>
        <value value="90"/>
        <unit value="{tablet}"/>
        <system value="http://unitsofmeasure.org"/>
        <code value="{tablet}"/>
     </quantity>
     
     <expectedSupplyDuration>
        <value value="90"/>
        <unit value="days"/>
        <system value="http://unitsofmeasure.org"/>
        <code value="d"/>
     </expectedSupplyDuration>
     
  </dispenseRequest>
  
</MedicationOrder>

  </resource>
  <request>
    <method value="PUT"/>
    <url value="MedicationOrder/smart-MedicationOrder-186"/>
  </request>
</entry>
<entry>
  <resource>
    
    
<MedicationDispense>
  <meta>
      <tag>
          <system value="https://smarthealthit.org/tags"/>
          <code value="smart-8-2017"/>
      </tag>
  </meta>
  <id value="smart-MedicationDispense-75"/>
  <!--  insert contents here  -->
   <text>
    <status value="generated"/>
    <div xmlns="http://www.w3.org/1999/xhtml">
      Dispensed 90 tablets = 90 day supply of Hydrochlorothiazide 12.5 MG / Lisinopril 20 MG Oral Tablet
    </div>
  </text>

  <status value="completed"/>

  <patient>
    <reference value="Patient/smart-1642068"/>
  </patient>

  <authorizingPrescription>
    <reference value="MedicationOrder/smart-MedicationOrder-186"/>
  </authorizingPrescription>

  <quantity>
      <value value="90"/>
      <unit value="tablets"/>
      <system value="http://unitsofmeasure.org"/>
      <code value="{tablets}"/>
  </quantity>

  <daysSupply>
      <value value="90" />
      <unit value="days" />
      <system value="http://unitsofmeasure.org" />
      <code value="d" />
  </daysSupply>

  <medicationCodeableConcept>
    <coding>
        <system value="http://www.nlm.nih.gov/research/umls/rxnorm"/>
        <code value="197886"/>
        <display value="Hydrochlorothiazide 12.5 MG / Lisinopril 20 MG Oral Tablet"/>
    </coding>
    <text value="Hydrochlorothiazide 12.5 MG / Lisinopril 20 MG Oral Tablet"/>
  </medicationCodeableConcept>

  <whenHandedOver value="2009-02-26"/>

</MedicationDispense>

  </resource>
  <request>
    <method value="PUT"/>
    <url value="MedicationDispense/smart-MedicationDispense-75"/>
  </request>
</entry>
<entry>
  <resource>
    
    
<MedicationDispense>
  <meta>
      <tag>
          <system value="https://smarthealthit.org/tags"/>
          <code value="smart-8-2017"/>
      </tag>
  </meta>
  <id value="smart-MedicationDispense-76"/>
  <!--  insert contents here  -->
   <text>
    <status value="generated"/>
    <div xmlns="http://www.w3.org/1999/xhtml">
      Dispensed 90 tablets = 90 day supply of Hydrochlorothiazide 12.5 MG / Lisinopril 20 MG Oral Tablet
    </div>
  </text>

  <status value="completed"/>

  <patient>
    <reference value="Patient/smart-1642068"/>
  </patient>

  <authorizingPrescription>
    <reference value="MedicationOrder/smart-MedicationOrder-186"/>
  </authorizingPrescription>

  <quantity>
      <value value="90"/>
      <unit value="tablets"/>
      <system value="http://unitsofmeasure.org"/>
      <code value="{tablets}"/>
  </quantity>

  <daysSupply>
      <value value="90" />
      <unit value="days" />
      <system value="http://unitsofmeasure.org" />
      <code value="d" />
  </daysSupply>

  <medicationCodeableConcept>
    <coding>
        <system value="http://www.nlm.nih.gov/research/umls/rxnorm"/>
        <code value="197886"/>
        <display value="Hydrochlorothiazide 12.5 MG / Lisinopril 20 MG Oral Tablet"/>
    </coding>
    <text value="Hydrochlorothiazide 12.5 MG / Lisinopril 20 MG Oral Tablet"/>
  </medicationCodeableConcept>

  <whenHandedOver value="2009-05-22"/>

</MedicationDispense>

  </resource>
  <request>
    <method value="PUT"/>
    <url value="MedicationDispense/smart-MedicationDispense-76"/>
  </request>
</entry>
<entry>
  <resource>
    
    
<MedicationDispense>
  <meta>
      <tag>
          <system value="https://smarthealthit.org/tags"/>
          <code value="smart-8-2017"/>
      </tag>
  </meta>
  <id value="smart-MedicationDispense-74"/>
  <!--  insert contents here  -->
   <text>
    <status value="generated"/>
    <div xmlns="http://www.w3.org/1999/xhtml">
      Dispensed 90 tablets = 90 day supply of Hydrochlorothiazide 12.5 MG / Lisinopril 20 MG Oral Tablet
    </div>
  </text>

  <status value="completed"/>

  <patient>
    <reference value="Patient/smart-1642068"/>
  </patient>

  <authorizingPrescription>
    <reference value="MedicationOrder/smart-MedicationOrder-186"/>
  </authorizingPrescription>

  <quantity>
      <value value="90"/>
      <unit value="tablets"/>
      <system value="http://unitsofmeasure.org"/>
      <code value="{tablets}"/>
  </quantity>

  <daysSupply>
      <value value="90" />
      <unit value="days" />
      <system value="http://unitsofmeasure.org" />
      <code value="d" />
  </daysSupply>

  <medicationCodeableConcept>
    <coding>
        <system value="http://www.nlm.nih.gov/research/umls/rxnorm"/>
        <code value="197886"/>
        <display value="Hydrochlorothiazide 12.5 MG / Lisinopril 20 MG Oral Tablet"/>
    </coding>
    <text value="Hydrochlorothiazide 12.5 MG / Lisinopril 20 MG Oral Tablet"/>
  </medicationCodeableConcept>

  <whenHandedOver value="2008-12-01"/>

</MedicationDispense>

  </resource>
  <request>
    <method value="PUT"/>
    <url value="MedicationDispense/smart-MedicationDispense-74"/>
  </request>
</entry>
<entry>
  <resource>
    
    
<MedicationOrder>
  <meta>
      <tag>
          <system value="https://smarthealthit.org/tags"/>
          <code value="smart-8-2017"/>
      </tag>
  </meta>
  <id value="smart-MedicationOrder-187"/>
  <text>
    <status value="generated"/>
    <div xmlns="http://www.w3.org/1999/xhtml">
      120 ACTUAT mometasone furoate 0.05 MG/ACTUAT Nasal Inhaler [Nasonex] (rxnorm: 746201)
    </div>
  </text>

  <status value="active" />
  <patient>
    <reference value="Patient/smart-1642068"/>
  </patient>

  <medicationCodeableConcept>
    <coding>
        <system value="http://www.nlm.nih.gov/research/umls/rxnorm"/>
        <code value="746201"/>
        <display value="120 ACTUAT mometasone furoate 0.05 MG/ACTUAT Nasal Inhaler [Nasonex]"/>
    </coding>
    <text value="120 ACTUAT mometasone furoate 0.05 MG/ACTUAT Nasal Inhaler [Nasonex]"/>
  </medicationCodeableConcept>

  <dosageInstruction>
    <timing>
      <repeat>
        <boundsPeriod>
          <start value="2008-12-20"/>
        </boundsPeriod>
        <frequency value="2"/>
        <period value="1"/>
        <periodUnits value="d"/>
      </repeat>
      
    </timing>
    <doseQuantity>
      <value value="1"/>
      <unit value="{puff}"/>
      <system value="http://unitsofmeasure.org"/>
      <code value="{puff}"/>
    </doseQuantity>
    
    <text value="1 puff bid"/>
  </dosageInstruction>
  <dispenseRequest>
     <numberOfRepeatsAllowed value="1"/>
     
     <quantity>
        <value value="1"/>
        <unit value="{puff}"/>
        <system value="http://unitsofmeasure.org"/>
        <code value="{puff}"/>
     </quantity>
     
     <expectedSupplyDuration>
        <value value="60"/>
        <unit value="days"/>
        <system value="http://unitsofmeasure.org"/>
        <code value="d"/>
     </expectedSupplyDuration>
     
  </dispenseRequest>
  
</MedicationOrder>

  </resource>
  <request>
    <method value="PUT"/>
    <url value="MedicationOrder/smart-MedicationOrder-187"/>
  </request>
</entry>
<entry>
  <resource>
    
    
<MedicationDispense>
  <meta>
      <tag>
          <system value="https://smarthealthit.org/tags"/>
          <code value="smart-8-2017"/>
      </tag>
  </meta>
  <id value="smart-MedicationDispense-55"/>
  <!--  insert contents here  -->
   <text>
    <status value="generated"/>
    <div xmlns="http://www.w3.org/1999/xhtml">
      Dispensed 17 tablets = 30 day supply of 120 ACTUAT mometasone furoate 0.05 MG/ACTUAT Nasal Inhaler [Nasonex]
    </div>
  </text>

  <status value="completed"/>

  <patient>
    <reference value="Patient/smart-1642068"/>
  </patient>

  <authorizingPrescription>
    <reference value="MedicationOrder/smart-MedicationOrder-187"/>
  </authorizingPrescription>

  <quantity>
      <value value="17"/>
      <unit value="tablets"/>
      <system value="http://unitsofmeasure.org"/>
      <code value="{tablets}"/>
  </quantity>

  <daysSupply>
      <value value="30" />
      <unit value="days" />
      <system value="http://unitsofmeasure.org" />
      <code value="d" />
  </daysSupply>

  <medicationCodeableConcept>
    <coding>
        <system value="http://www.nlm.nih.gov/research/umls/rxnorm"/>
        <code value="746201"/>
        <display value="120 ACTUAT mometasone furoate 0.05 MG/ACTUAT Nasal Inhaler [Nasonex]"/>
    </coding>
    <text value="120 ACTUAT mometasone furoate 0.05 MG/ACTUAT Nasal Inhaler [Nasonex]"/>
  </medicationCodeableConcept>

  <whenHandedOver value="2009-07-17"/>

</MedicationDispense>

  </resource>
  <request>
    <method value="PUT"/>
    <url value="MedicationDispense/smart-MedicationDispense-55"/>
  </request>
</entry>
<entry>
  <resource>
    
    
<MedicationDispense>
  <meta>
      <tag>
          <system value="https://smarthealthit.org/tags"/>
          <code value="smart-8-2017"/>
      </tag>
  </meta>
  <id value="smart-MedicationDispense-54"/>
  <!--  insert contents here  -->
   <text>
    <status value="generated"/>
    <div xmlns="http://www.w3.org/1999/xhtml">
      Dispensed 17 tablets = 30 day supply of 120 ACTUAT mometasone furoate 0.05 MG/ACTUAT Nasal Inhaler [Nasonex]
    </div>
  </text>

  <status value="completed"/>

  <patient>
    <reference value="Patient/smart-1642068"/>
  </patient>

  <authorizingPrescription>
    <reference value="MedicationOrder/smart-MedicationOrder-187"/>
  </authorizingPrescription>

  <quantity>
      <value value="17"/>
      <unit value="tablets"/>
      <system value="http://unitsofmeasure.org"/>
      <code value="{tablets}"/>
  </quantity>

  <daysSupply>
      <value value="30" />
      <unit value="days" />
      <system value="http://unitsofmeasure.org" />
      <code value="d" />
  </daysSupply>

  <medicationCodeableConcept>
    <coding>
        <system value="http://www.nlm.nih.gov/research/umls/rxnorm"/>
        <code value="746201"/>
        <display value="120 ACTUAT mometasone furoate 0.05 MG/ACTUAT Nasal Inhaler [Nasonex]"/>
    </coding>
    <text value="120 ACTUAT mometasone furoate 0.05 MG/ACTUAT Nasal Inhaler [Nasonex]"/>
  </medicationCodeableConcept>

  <whenHandedOver value="2008-12-20"/>

</MedicationDispense>

  </resource>
  <request>
    <method value="PUT"/>
    <url value="MedicationDispense/smart-MedicationDispense-54"/>
  </request>
</entry>
<entry>
  <resource>
    
    
<MedicationDispense>
  <meta>
      <tag>
          <system value="https://smarthealthit.org/tags"/>
          <code value="smart-8-2017"/>
      </tag>
  </meta>
  <id value="smart-MedicationDispense-56"/>
  <!--  insert contents here  -->
   <text>
    <status value="generated"/>
    <div xmlns="http://www.w3.org/1999/xhtml">
      Dispensed 17 tablets = 30 day supply of 120 ACTUAT mometasone furoate 0.05 MG/ACTUAT Nasal Inhaler [Nasonex]
    </div>
  </text>

  <status value="completed"/>

  <patient>
    <reference value="Patient/smart-1642068"/>
  </patient>

  <authorizingPrescription>
    <reference value="MedicationOrder/smart-MedicationOrder-187"/>
  </authorizingPrescription>

  <quantity>
      <value value="17"/>
      <unit value="tablets"/>
      <system value="http://unitsofmeasure.org"/>
      <code value="{tablets}"/>
  </quantity>

  <daysSupply>
      <value value="30" />
      <unit value="days" />
      <system value="http://unitsofmeasure.org" />
      <code value="d" />
  </daysSupply>

  <medicationCodeableConcept>
    <coding>
        <system value="http://www.nlm.nih.gov/research/umls/rxnorm"/>
        <code value="746201"/>
        <display value="120 ACTUAT mometasone furoate 0.05 MG/ACTUAT Nasal Inhaler [Nasonex]"/>
    </coding>
    <text value="120 ACTUAT mometasone furoate 0.05 MG/ACTUAT Nasal Inhaler [Nasonex]"/>
  </medicationCodeableConcept>

  <whenHandedOver value="2009-09-03"/>

</MedicationDispense>

  </resource>
  <request>
    <method value="PUT"/>
    <url value="MedicationDispense/smart-MedicationDispense-56"/>
  </request>
</entry>
<entry>
  <resource>
    
    
<MedicationOrder>
  <meta>
      <tag>
          <system value="https://smarthealthit.org/tags"/>
          <code value="smart-8-2017"/>
      </tag>
  </meta>
  <id value="smart-MedicationOrder-188"/>
  <text>
    <status value="generated"/>
    <div xmlns="http://www.w3.org/1999/xhtml">
      pantoprazole 40 MG Enteric Coated Tablet [Protonix] (rxnorm: 284400)
    </div>
  </text>

  <status value="active" />
  <patient>
    <reference value="Patient/smart-1642068"/>
  </patient>

  <medicationCodeableConcept>
    <coding>
        <system value="http://www.nlm.nih.gov/research/umls/rxnorm"/>
        <code value="284400"/>
        <display value="pantoprazole 40 MG Enteric Coated Tablet [Protonix]"/>
    </coding>
    <text value="pantoprazole 40 MG Enteric Coated Tablet [Protonix]"/>
  </medicationCodeableConcept>

  <dosageInstruction>
    <timing>
      <repeat>
        <boundsPeriod>
          <start value="2009-03-19"/>
        </boundsPeriod>
        <frequency value="1"/>
        <period value="1"/>
        <periodUnits value="d"/>
      </repeat>
      
    </timing>
    <doseQuantity>
      <value value="1"/>
      <unit value="{tablet}"/>
      <system value="http://unitsofmeasure.org"/>
      <code value="{tablet}"/>
    </doseQuantity>
    
    <text value="1 daily"/>
  </dosageInstruction>
  <dispenseRequest>
     <numberOfRepeatsAllowed value="1"/>
     
     <quantity>
        <value value="90"/>
        <unit value="{tablet}"/>
        <system value="http://unitsofmeasure.org"/>
        <code value="{tablet}"/>
     </quantity>
     
     <expectedSupplyDuration>
        <value value="90"/>
        <unit value="days"/>
        <system value="http://unitsofmeasure.org"/>
        <code value="d"/>
     </expectedSupplyDuration>
     
  </dispenseRequest>
  
</MedicationOrder>

  </resource>
  <request>
    <method value="PUT"/>
    <url value="MedicationOrder/smart-MedicationOrder-188"/>
  </request>
</entry>
<entry>
  <resource>
    
    
<MedicationDispense>
  <meta>
      <tag>
          <system value="https://smarthealthit.org/tags"/>
          <code value="smart-8-2017"/>
      </tag>
  </meta>
  <id value="smart-MedicationDispense-79"/>
  <!--  insert contents here  -->
   <text>
    <status value="generated"/>
    <div xmlns="http://www.w3.org/1999/xhtml">
      Dispensed 90 tablets = 90 day supply of pantoprazole 40 MG Enteric Coated Tablet [Protonix]
    </div>
  </text>

  <status value="completed"/>

  <patient>
    <reference value="Patient/smart-1642068"/>
  </patient>

  <authorizingPrescription>
    <reference value="MedicationOrder/smart-MedicationOrder-188"/>
  </authorizingPrescription>

  <quantity>
      <value value="90"/>
      <unit value="tablets"/>
      <system value="http://unitsofmeasure.org"/>
      <code value="{tablets}"/>
  </quantity>

  <daysSupply>
      <value value="90" />
      <unit value="days" />
      <system value="http://unitsofmeasure.org" />
      <code value="d" />
  </daysSupply>

  <medicationCodeableConcept>
    <coding>
        <system value="http://www.nlm.nih.gov/research/umls/rxnorm"/>
        <code value="284400"/>
        <display value="pantoprazole 40 MG Enteric Coated Tablet [Protonix]"/>
    </coding>
    <text value="pantoprazole 40 MG Enteric Coated Tablet [Protonix]"/>
  </medicationCodeableConcept>

  <whenHandedOver value="2009-09-17"/>

</MedicationDispense>

  </resource>
  <request>
    <method value="PUT"/>
    <url value="MedicationDispense/smart-MedicationDispense-79"/>
  </request>
</entry>
<entry>
  <resource>
    
    
<MedicationDispense>
  <meta>
      <tag>
          <system value="https://smarthealthit.org/tags"/>
          <code value="smart-8-2017"/>
      </tag>
  </meta>
  <id value="smart-MedicationDispense-78"/>
  <!--  insert contents here  -->
   <text>
    <status value="generated"/>
    <div xmlns="http://www.w3.org/1999/xhtml">
      Dispensed 90 tablets = 90 day supply of pantoprazole 40 MG Enteric Coated Tablet [Protonix]
    </div>
  </text>

  <status value="completed"/>

  <patient>
    <reference value="Patient/smart-1642068"/>
  </patient>

  <authorizingPrescription>
    <reference value="MedicationOrder/smart-MedicationOrder-188"/>
  </authorizingPrescription>

  <quantity>
      <value value="90"/>
      <unit value="tablets"/>
      <system value="http://unitsofmeasure.org"/>
      <code value="{tablets}"/>
  </quantity>

  <daysSupply>
      <value value="90" />
      <unit value="days" />
      <system value="http://unitsofmeasure.org" />
      <code value="d" />
  </daysSupply>

  <medicationCodeableConcept>
    <coding>
        <system value="http://www.nlm.nih.gov/research/umls/rxnorm"/>
        <code value="284400"/>
        <display value="pantoprazole 40 MG Enteric Coated Tablet [Protonix]"/>
    </coding>
    <text value="pantoprazole 40 MG Enteric Coated Tablet [Protonix]"/>
  </medicationCodeableConcept>

  <whenHandedOver value="2009-06-18"/>

</MedicationDispense>

  </resource>
  <request>
    <method value="PUT"/>
    <url value="MedicationDispense/smart-MedicationDispense-78"/>
  </request>
</entry>
<entry>
  <resource>
    
    
<MedicationDispense>
  <meta>
      <tag>
          <system value="https://smarthealthit.org/tags"/>
          <code value="smart-8-2017"/>
      </tag>
  </meta>
  <id value="smart-MedicationDispense-77"/>
  <!--  insert contents here  -->
   <text>
    <status value="generated"/>
    <div xmlns="http://www.w3.org/1999/xhtml">
      Dispensed 90 tablets = 90 day supply of pantoprazole 40 MG Enteric Coated Tablet [Protonix]
    </div>
  </text>

  <status value="completed"/>

  <patient>
    <reference value="Patient/smart-1642068"/>
  </patient>

  <authorizingPrescription>
    <reference value="MedicationOrder/smart-MedicationOrder-188"/>
  </authorizingPrescription>

  <quantity>
      <value value="90"/>
      <unit value="tablets"/>
      <system value="http://unitsofmeasure.org"/>
      <code value="{tablets}"/>
  </quantity>

  <daysSupply>
      <value value="90" />
      <unit value="days" />
      <system value="http://unitsofmeasure.org" />
      <code value="d" />
  </daysSupply>

  <medicationCodeableConcept>
    <coding>
        <system value="http://www.nlm.nih.gov/research/umls/rxnorm"/>
        <code value="284400"/>
        <display value="pantoprazole 40 MG Enteric Coated Tablet [Protonix]"/>
    </coding>
    <text value="pantoprazole 40 MG Enteric Coated Tablet [Protonix]"/>
  </medicationCodeableConcept>

  <whenHandedOver value="2009-03-19"/>

</MedicationDispense>

  </resource>
  <request>
    <method value="PUT"/>
    <url value="MedicationDispense/smart-MedicationDispense-77"/>
  </request>
</entry>
<entry>
  <resource>
    
    
<MedicationOrder>
  <meta>
      <tag>
          <system value="https://smarthealthit.org/tags"/>
          <code value="smart-8-2017"/>
      </tag>
  </meta>
  <id value="smart-MedicationOrder-189"/>
  <text>
    <status value="generated"/>
    <div xmlns="http://www.w3.org/1999/xhtml">
      Lisinopril 20 MG Oral Tablet (rxnorm: 314077)
    </div>
  </text>

  <status value="active" />
  <patient>
    <reference value="Patient/smart-1642068"/>
  </patient>

  <medicationCodeableConcept>
    <coding>
        <system value="http://www.nlm.nih.gov/research/umls/rxnorm"/>
        <code value="314077"/>
        <display value="Lisinopril 20 MG Oral Tablet"/>
    </coding>
    <text value="Lisinopril 20 MG Oral Tablet"/>
  </medicationCodeableConcept>

  <dosageInstruction>
    <timing>
      <repeat>
        <boundsPeriod>
          <start value="2009-06-22"/>
        </boundsPeriod>
        <frequency value="1"/>
        <period value="1"/>
        <periodUnits value="d"/>
      </repeat>
      
    </timing>
    <doseQuantity>
      <value value="1"/>
      <unit value="{tablet}"/>
      <system value="http://unitsofmeasure.org"/>
      <code value="{tablet}"/>
    </doseQuantity>
    
    <text value="1 daily"/>
  </dosageInstruction>
  <dispenseRequest>
     <numberOfRepeatsAllowed value="1"/>
     
     <quantity>
        <value value="60"/>
        <unit value="{tablet}"/>
        <system value="http://unitsofmeasure.org"/>
        <code value="{tablet}"/>
     </quantity>
     
     <expectedSupplyDuration>
        <value value="60"/>
        <unit value="days"/>
        <system value="http://unitsofmeasure.org"/>
        <code value="d"/>
     </expectedSupplyDuration>
     
  </dispenseRequest>
  
</MedicationOrder>

  </resource>
  <request>
    <method value="PUT"/>
    <url value="MedicationOrder/smart-MedicationOrder-189"/>
  </request>
</entry>
<entry>
  <resource>
    
    
<MedicationDispense>
  <meta>
      <tag>
          <system value="https://smarthealthit.org/tags"/>
          <code value="smart-8-2017"/>
      </tag>
  </meta>
  <id value="smart-MedicationDispense-73"/>
  <!--  insert contents here  -->
   <text>
    <status value="generated"/>
    <div xmlns="http://www.w3.org/1999/xhtml">
      Dispensed 90 tablets = 90 day supply of Lisinopril 20 MG Oral Tablet
    </div>
  </text>

  <status value="completed"/>

  <patient>
    <reference value="Patient/smart-1642068"/>
  </patient>

  <authorizingPrescription>
    <reference value="MedicationOrder/smart-MedicationOrder-189"/>
  </authorizingPrescription>

  <quantity>
      <value value="90"/>
      <unit value="tablets"/>
      <system value="http://unitsofmeasure.org"/>
      <code value="{tablets}"/>
  </quantity>

  <daysSupply>
      <value value="90" />
      <unit value="days" />
      <system value="http://unitsofmeasure.org" />
      <code value="d" />
  </daysSupply>

  <medicationCodeableConcept>
    <coding>
        <system value="http://www.nlm.nih.gov/research/umls/rxnorm"/>
        <code value="314077"/>
        <display value="Lisinopril 20 MG Oral Tablet"/>
    </coding>
    <text value="Lisinopril 20 MG Oral Tablet"/>
  </medicationCodeableConcept>

  <whenHandedOver value="2009-08-24"/>

</MedicationDispense>

  </resource>
  <request>
    <method value="PUT"/>
    <url value="MedicationDispense/smart-MedicationDispense-73"/>
  </request>
</entry>
<entry>
  <resource>
    
    
<MedicationDispense>
  <meta>
      <tag>
          <system value="https://smarthealthit.org/tags"/>
          <code value="smart-8-2017"/>
      </tag>
  </meta>
  <id value="smart-MedicationDispense-72"/>
  <!--  insert contents here  -->
   <text>
    <status value="generated"/>
    <div xmlns="http://www.w3.org/1999/xhtml">
      Dispensed 60 tablets = 60 day supply of Lisinopril 20 MG Oral Tablet
    </div>
  </text>

  <status value="completed"/>

  <patient>
    <reference value="Patient/smart-1642068"/>
  </patient>

  <authorizingPrescription>
    <reference value="MedicationOrder/smart-MedicationOrder-189"/>
  </authorizingPrescription>

  <quantity>
      <value value="60"/>
      <unit value="tablets"/>
      <system value="http://unitsofmeasure.org"/>
      <code value="{tablets}"/>
  </quantity>

  <daysSupply>
      <value value="60" />
      <unit value="days" />
      <system value="http://unitsofmeasure.org" />
      <code value="d" />
  </daysSupply>

  <medicationCodeableConcept>
    <coding>
        <system value="http://www.nlm.nih.gov/research/umls/rxnorm"/>
        <code value="314077"/>
        <display value="Lisinopril 20 MG Oral Tablet"/>
    </coding>
    <text value="Lisinopril 20 MG Oral Tablet"/>
  </medicationCodeableConcept>

  <whenHandedOver value="2009-06-22"/>

</MedicationDispense>

  </resource>
  <request>
    <method value="PUT"/>
    <url value="MedicationDispense/smart-MedicationDispense-72"/>
  </request>
</entry>
  <entry>
  <resource>
    
    
  <Condition>
  <meta>
      <tag>
          <system value="https://smarthealthit.org/tags"/>
          <code value="smart-8-2017"/>
      </tag>
  </meta>
  <id value="smart-Condition-33"/>
    <text>
     <status value="generated"/>
     <div xmlns="http://www.w3.org/1999/xhtml">Benign neoplasm of stomach</div>   
   </text>
    <patient>
      <reference value="Patient/smart-1642068"/>
    </patient>
    <code> 
      <coding>
        <system value="http://snomed.info/sct"/>
        <code value="78809005"/>
        <display value="Benign neoplasm of stomach"/>
      </coding>
      <text value="Benign neoplasm of stomach"/>
    </code>
   <clinicalStatus value="active"/>
   <verificationStatus value="confirmed"/>
   <onsetDateTime value="2004-12-19"/>
   
  </Condition>
  
  </resource>
  <request>
    <method value="PUT"/>
    <url value="Condition/smart-Condition-33"/>
  </request>
</entry>
  <entry>
  <resource>
    
    
  <Condition>
  <meta>
      <tag>
          <system value="https://smarthealthit.org/tags"/>
          <code value="smart-8-2017"/>
      </tag>
  </meta>
  <id value="smart-Condition-34"/>
    <text>
     <status value="generated"/>
     <div xmlns="http://www.w3.org/1999/xhtml">Essential hypertension</div>   
   </text>
    <patient>
      <reference value="Patient/smart-1642068"/>
    </patient>
    <code> 
      <coding>
        <system value="http://snomed.info/sct"/>
        <code value="38341003"/>
        <display value="Essential hypertension"/>
      </coding>
      <text value="Essential hypertension"/>
    </code>
   <clinicalStatus value="active"/>
   <verificationStatus value="confirmed"/>
   <onsetDateTime value="2004-12-19"/>
   
  </Condition>
  
  </resource>
  <request>
    <method value="PUT"/>
    <url value="Condition/smart-Condition-34"/>
  </request>
</entry>
  <entry>
  <resource>
    
    
  <Condition>
  <meta>
      <tag>
          <system value="https://smarthealthit.org/tags"/>
          <code value="smart-8-2017"/>
      </tag>
  </meta>
  <id value="smart-Condition-35"/>
    <text>
     <status value="generated"/>
     <div xmlns="http://www.w3.org/1999/xhtml">Gastritis</div>   
   </text>
    <patient>
      <reference value="Patient/smart-1642068"/>
    </patient>
    <code> 
      <coding>
        <system value="http://snomed.info/sct"/>
        <code value="235651006"/>
        <display value="Gastritis"/>
      </coding>
      <text value="Gastritis"/>
    </code>
   <clinicalStatus value="active"/>
   <verificationStatus value="confirmed"/>
   <onsetDateTime value="2004-12-19"/>
   
  </Condition>
  
  </resource>
  <request>
    <method value="PUT"/>
    <url value="Condition/smart-Condition-35"/>
  </request>
</entry>
  <entry>
  <resource>
    
    
  <Condition>
  <meta>
      <tag>
          <system value="https://smarthealthit.org/tags"/>
          <code value="smart-8-2017"/>
      </tag>
  </meta>
  <id value="smart-Condition-36"/>
    <text>
     <status value="generated"/>
     <div xmlns="http://www.w3.org/1999/xhtml">Hypothyroidism</div>   
   </text>
    <patient>
      <reference value="Patient/smart-1642068"/>
    </patient>
    <code> 
      <coding>
        <system value="http://snomed.info/sct"/>
        <code value="40930008"/>
        <display value="Hypothyroidism"/>
      </coding>
      <text value="Hypothyroidism"/>
    </code>
   <clinicalStatus value="active"/>
   <verificationStatus value="confirmed"/>
   <onsetDateTime value="2004-12-19"/>
   
  </Condition>
  
  </resource>
  <request>
    <method value="PUT"/>
    <url value="Condition/smart-Condition-36"/>
  </request>
</entry>
  <entry>
  <resource>
    
    
  <Condition>
  <meta>
      <tag>
          <system value="https://smarthealthit.org/tags"/>
          <code value="smart-8-2017"/>
      </tag>
  </meta>
  <id value="smart-Condition-37"/>
    <text>
     <status value="generated"/>
     <div xmlns="http://www.w3.org/1999/xhtml">Other specified disorders of stomach and duodenum</div>   
   </text>
    <patient>
      <reference value="Patient/smart-1642068"/>
    </patient>
    <code> 
      <coding>
        <system value="http://snomed.info/sct"/>
        <code value="236104004"/>
        <display value="Other specified disorders of stomach and duodenum"/>
      </coding>
      <text value="Other specified disorders of stomach and duodenum"/>
    </code>
   <clinicalStatus value="active"/>
   <verificationStatus value="confirmed"/>
   <onsetDateTime value="2004-12-19"/>
   
  </Condition>
  
  </resource>
  <request>
    <method value="PUT"/>
    <url value="Condition/smart-Condition-37"/>
  </request>
</entry>
  <entry>
  <resource>
    
    
  <Condition>
  <meta>
      <tag>
          <system value="https://smarthealthit.org/tags"/>
          <code value="smart-8-2017"/>
      </tag>
  </meta>
  <id value="smart-Condition-38"/>
    <text>
     <status value="generated"/>
     <div xmlns="http://www.w3.org/1999/xhtml">Pernicious anemia</div>   
   </text>
    <patient>
      <reference value="Patient/smart-1642068"/>
    </patient>
    <code> 
      <coding>
        <system value="http://snomed.info/sct"/>
        <code value="84027009"/>
        <display value="Pernicious anemia"/>
      </coding>
      <text value="Pernicious anemia"/>
    </code>
   <clinicalStatus value="active"/>
   <verificationStatus value="confirmed"/>
   <onsetDateTime value="2004-12-19"/>
   
  </Condition>
  
  </resource>
  <request>
    <method value="PUT"/>
    <url value="Condition/smart-Condition-38"/>
  </request>
</entry>
  <entry>
  <resource>
    
    
  <Condition>
  <meta>
      <tag>
          <system value="https://smarthealthit.org/tags"/>
          <code value="smart-8-2017"/>
      </tag>
  </meta>
  <id value="smart-Condition-39"/>
    <text>
     <status value="generated"/>
     <div xmlns="http://www.w3.org/1999/xhtml">Abnormal mammogram, unspecified</div>   
   </text>
    <patient>
      <reference value="Patient/smart-1642068"/>
    </patient>
    <code> 
      <coding>
        <system value="http://snomed.info/sct"/>
        <code value="168750009"/>
        <display value="Abnormal mammogram, unspecified"/>
      </coding>
      <text value="Abnormal mammogram, unspecified"/>
    </code>
   <clinicalStatus value="active"/>
   <verificationStatus value="confirmed"/>
   <onsetDateTime value="2005-02-20"/>
   
  </Condition>
  
  </resource>
  <request>
    <method value="PUT"/>
    <url value="Condition/smart-Condition-39"/>
  </request>
</entry>
  <entry>
  <resource>
    
    
  <Condition>
  <meta>
      <tag>
          <system value="https://smarthealthit.org/tags"/>
          <code value="smart-8-2017"/>
      </tag>
  </meta>
  <id value="smart-Condition-40"/>
    <text>
     <status value="generated"/>
     <div xmlns="http://www.w3.org/1999/xhtml">Osteoarthritis</div>   
   </text>
    <patient>
      <reference value="Patient/smart-1642068"/>
    </patient>
    <code> 
      <coding>
        <system value="http://snomed.info/sct"/>
        <code value="396275006"/>
        <display value="Osteoarthritis"/>
      </coding>
      <text value="Osteoarthritis"/>
    </code>
   <clinicalStatus value="active"/>
   <verificationStatus value="confirmed"/>
   <onsetDateTime value="2005-02-20"/>
   
  </Condition>
  
  </resource>
  <request>
    <method value="PUT"/>
    <url value="Condition/smart-Condition-40"/>
  </request>
</entry>
  <entry>
  <resource>
    
    
  <Condition>
  <meta>
      <tag>
          <system value="https://smarthealthit.org/tags"/>
          <code value="smart-8-2017"/>
      </tag>
  </meta>
  <id value="smart-Condition-41"/>
    <text>
     <status value="generated"/>
     <div xmlns="http://www.w3.org/1999/xhtml">Pain in limb</div>   
   </text>
    <patient>
      <reference value="Patient/smart-1642068"/>
    </patient>
    <code> 
      <coding>
        <system value="http://snomed.info/sct"/>
        <code value="10601006"/>
        <display value="Pain in limb"/>
      </coding>
      <text value="Pain in limb"/>
    </code>
   <clinicalStatus value="active"/>
   <verificationStatus value="confirmed"/>
   <onsetDateTime value="2005-12-20"/>
   
  </Condition>
  
  </resource>
  <request>
    <method value="PUT"/>
    <url value="Condition/smart-Condition-41"/>
  </request>
</entry>
  <entry>
  <resource>
    
    
  <Condition>
  <meta>
      <tag>
          <system value="https://smarthealthit.org/tags"/>
          <code value="smart-8-2017"/>
      </tag>
  </meta>
  <id value="smart-Condition-42"/>
    <text>
     <status value="generated"/>
     <div xmlns="http://www.w3.org/1999/xhtml">Exostosis of unspecified site</div>   
   </text>
    <patient>
      <reference value="Patient/smart-1642068"/>
    </patient>
    <code> 
      <coding>
        <system value="http://snomed.info/sct"/>
        <code value="443092002"/>
        <display value="Exostosis of unspecified site"/>
      </coding>
      <text value="Exostosis of unspecified site"/>
    </code>
   <clinicalStatus value="active"/>
   <verificationStatus value="confirmed"/>
   <onsetDateTime value="2006-01-07"/>
   
  </Condition>
  
  </resource>
  <request>
    <method value="PUT"/>
    <url value="Condition/smart-Condition-42"/>
  </request>
</entry>
  <entry>
  <resource>
    
    
  <Condition>
  <meta>
      <tag>
          <system value="https://smarthealthit.org/tags"/>
          <code value="smart-8-2017"/>
      </tag>
  </meta>
  <id value="smart-Condition-43"/>
    <text>
     <status value="generated"/>
     <div xmlns="http://www.w3.org/1999/xhtml">H/O: penicillin allergy</div>   
   </text>
    <patient>
      <reference value="Patient/smart-1642068"/>
    </patient>
    <code> 
      <coding>
        <system value="http://snomed.info/sct"/>
        <code value="161591004"/>
        <display value="H/O: penicillin allergy"/>
      </coding>
      <text value="H/O: penicillin allergy"/>
    </code>
   <clinicalStatus value="active"/>
   <verificationStatus value="confirmed"/>
   <onsetDateTime value="2006-01-07"/>
   
  </Condition>
  
  </resource>
  <request>
    <method value="PUT"/>
    <url value="Condition/smart-Condition-43"/>
  </request>
</entry>
  <entry>
  <resource>
    
    
  <Procedure>
    <meta>
        <tag>
            <system value="https://smarthealthit.org/tags"/>
            <code value="smart-8-2017"/>
        </tag>
    </meta>
  <id value="smart-Procedure-5"/>
   <text>
     <status value="generated"/>
     <div xmlns="http://www.w3.org/1999/xhtml">Radical mastectomy including pectoral muscles and axillary lymph nodes</div>
   </text>
   <subject>
      <reference value="Patient/smart-1642068"/>
   </subject>
   <code>
      <coding>
        <system value="http://snomed.info/sct"/>
        <code value="359728003"/>
        <display value="Radical mastectomy including pectoral muscles and axillary lymph nodes"/>
      </coding>
      <text value="Radical mastectomy including pectoral muscles and axillary lymph nodes"/>
   </code>
   <performedDateTime value="2010-12-19"/>
  </Procedure>
  
  </resource>
  <request>
    <method value="PUT"/>
    <url value="Procedure/smart-Procedure-5"/>
  </request>
</entry>
  <entry>
  <resource>
    
    
  <Procedure>
    <meta>
        <tag>
            <system value="https://smarthealthit.org/tags"/>
            <code value="smart-8-2017"/>
        </tag>
    </meta>
  <id value="smart-Procedure-6"/>
   <text>
     <status value="generated"/>
     <div xmlns="http://www.w3.org/1999/xhtml">Normal birth</div>
   </text>
   <subject>
      <reference value="Patient/smart-1642068"/>
   </subject>
   <code>
      <coding>
        <system value="http://snomed.info/sct"/>
        <code value="169961004"/>
        <display value="Normal birth"/>
      </coding>
      <text value="Normal birth"/>
   </code>
   <performedDateTime value="1980-02-12"/>
  </Procedure>
  
  </resource>
  <request>
    <method value="PUT"/>
    <url value="Procedure/smart-Procedure-6"/>
  </request>
</entry>
<entry>
  <resource>
    
    
  <Observation>
  <id value="smart-Observation-27-smokingstatus"/>
    <text>
      <status value="generated"/>
      <div xmlns="http://www.w3.org/1999/xhtml">Tobacco smoking status: Never smoker</div>
    </text>
    <category>
      <coding>
          <system value="http://hl7.org/fhir/observation-category"/>
          <code value="social-history"/>
          <display value="Social History"/>
      </coding>
      <text value="Social History"/>
    </category>
    <code>
      <coding>
        <system value="http://loinc.org"/>
        <code value="72166-2"/>
        <display value="Tobacco smoking status"/>
      </coding>
      <text value="Tobacco smoking status"/>
    </code>
    <valueCodeableConcept>
      <coding>
        <system value="http://snomed.info/sct"/>
        <code value="266919005"/>
        <display value="Never smoker"/>
      </coding>
      <text value="Never smoker"/>
    </valueCodeableConcept>
    <status value="final"/>
    <subject>
      <reference value="Patient/smart-1642068"/>
    </subject>
  </Observation>
  
  </resource>
  <request>
    <method value="PUT"/>
    <url value="Observation/smart-Observation-27-smokingstatus"/>
  </request>
</entry>
  <entry>
  <resource>
    
    
    <List>
        <meta>
            <tag>
                <system value="https://smarthealthit.org/tags"/>
                <code value="smart-8-2017"/>
            </tag>
        </meta>
  <id value="smart-List-38"/>
        <text>
            <status value="generated"/>
            <div xmlns="http://www.w3.org/1999/xhtml">No known allergies</div>
        </text>
        <code>
            <coding>
               <system value="http://loinc.org/"/>
               <code value="52473-6"/>
               <display value="Allergy"/>
            </coding>
            <text value="Allergy"/>
        </code>
        <subject>
          <reference value="Patient/smart-1642068"/>
        </subject>
        <date value="2000"/>
        <mode value="snapshot"/>
        <emptyReason>
            <coding>
                <system value="http://hl7.org/fhir/list-empty-reason"/>
                <code value="nilknown"/>
                <display value="Nil Known"/>
            </coding>
            <text value="Nil Known"/>
        </emptyReason>
    </List>
  
  </resource>
  <request>
    <method value="PUT"/>
    <url value="List/smart-List-38"/>
  </request>
</entry>

</Bundle>
