<?xml version="1.0" encoding="UTF-8"?>
<Bundle xmlns="http://hl7.org/fhir">
    <type value="transaction"/>

  <entry>
  <resource>
    
    
  <Patient>
    <meta>
        <tag>
            <system value="https://smarthealthit.org/tags"/>
            <code value="smart-8-2017"/>
        </tag>
    </meta>
    <id value="smart-1137192"/>
    <text>
      <status value="generated"/>
      <div xmlns="http://www.w3.org/1999/xhtml">
        <p>Joshua Williams</p>
      </div>
    </text>
    <identifier>
      <use value="usual"/>
      <type>
        <coding>
          <system value="http://hl7.org/fhir/v2/0203"/>
          <code value="MR"/>
          <display value="Medical record number"/>
        </coding>
        <text value="Medical record number"/>
      </type>
      <system value="http://hospital.smarthealthit.org"/>
      <value value="1137192"/>
    </identifier>
    <name>
      <use value="official"/>
      <family value="Williams"/>
      <given value="Joshua"/>
      <given value="P."/>
    </name>
    <telecom>
      <system value="phone"/>
      <value value="800-232-5751"/>
      <use value="mobile"/>
    </telecom>
    <telecom>
      <system value="email"/>
      <value value="joshua.williams@example.com"/>
    </telecom>
    <gender value="male" />
    <birthDate value="1954-08-21" />
    <address>
      <use value="home"/>
      <line value="96 East Rd"/>
      <city value="Tulsa"/>
      <state value="OK"/>
      <postalCode value="74108"/>
      <country value="USA"/>
    </address>
    <active value="true"/>
  </Patient>
  
  </resource>
  <request>
    <method value="PUT"/>
    <url value="Patient/smart-1137192"/>
  </request>
</entry>
<entry>
  <resource>
    
    
  <Observation>
    <meta>
        <tag>
            <system value="https://smarthealthit.org/tags"/>
            <code value="smart-8-2017"/>
        </tag>
    </meta>
  <id value="smart-Observation-2348-lab"/>
    <text>
      <status value="generated"/>
      <div xmlns="http://www.w3.org/1999/xhtml">2004-06-11: Trigl SerPl-mCnc = 152 mg/dL</div>
    </text>
    <category>
      <coding>
          <system value="http://hl7.org/fhir/observation-category"/>
          <code value="laboratory"/>
          <display value="Laboratory"/>
      </coding>
      <text value="Laboratory"/>
    </category>
    <code>
      <coding>
        <system value="http://loinc.org"/>
        <code value="2571-8"/>
        <display value="Trigl SerPl-mCnc"/>
      </coding>
      <text value="Trigl SerPl-mCnc"/>
    </code>
    <valueQuantity>
      <value value="152.0"/>
      <unit value="mg/dL"/>
      <system value="http://unitsofmeasure.org" />
      <code value=""/>
    </valueQuantity>
    
    <effectiveDateTime value="2004-06-11"/>
    <status value="final"/>
    <subject>
      <reference value="Patient/smart-1137192"/>
    </subject>
    <referenceRange>
      <meaning>
        <coding>
         <system value="http://hl7.org/fhir/referencerange-meaning"/>
         <code value="normal"/>
         <display value="Normal Range"/>
       </coding>
       <text value="Normal Range"/>
      </meaning>
      <low>
        <value value="0.0"/>
        <unit value="mg/dL"/>
        <code value="mg/dL"/>
        <system value="http://unitsofmeasure.org"/>
      </low>
      <high>
        <value value="150.0"/>
        <unit value="mg/dL"/>
        <code value="mg/dL"/>
        <system value="http://unitsofmeasure.org"/>
      </high>
    </referenceRange>
    
  </Observation>
  
  </resource>
  <request>
    <method value="PUT"/>
    <url value="Observation/smart-Observation-2348-lab"/>
  </request>
</entry>
<entry>
  <resource>
    
    
  <Observation>
    <meta>
        <tag>
            <system value="https://smarthealthit.org/tags"/>
            <code value="smart-8-2017"/>
        </tag>
    </meta>
  <id value="smart-Observation-2349-lab"/>
    <text>
      <status value="generated"/>
      <div xmlns="http://www.w3.org/1999/xhtml">2004-06-11: CO2 SerPl-sCnc = 26 mmol/L</div>
    </text>
    <category>
      <coding>
          <system value="http://hl7.org/fhir/observation-category"/>
          <code value="laboratory"/>
          <display value="Laboratory"/>
      </coding>
      <text value="Laboratory"/>
    </category>
    <code>
      <coding>
        <system value="http://loinc.org"/>
        <code value="2028-9"/>
        <display value="CO2 SerPl-sCnc"/>
      </coding>
      <text value="CO2 SerPl-sCnc"/>
    </code>
    <valueQuantity>
      <value value="26.0"/>
      <unit value="mmol/L"/>
      <system value="http://unitsofmeasure.org" />
      <code value=""/>
    </valueQuantity>
    
    <effectiveDateTime value="2004-06-11"/>
    <status value="final"/>
    <subject>
      <reference value="Patient/smart-1137192"/>
    </subject>
    <referenceRange>
      <meaning>
        <coding>
         <system value="http://hl7.org/fhir/referencerange-meaning"/>
         <code value="normal"/>
         <display value="Normal Range"/>
       </coding>
       <text value="Normal Range"/>
      </meaning>
      <low>
        <value value="22.0"/>
        <unit value="mmol/L"/>
        <code value="mmol/L"/>
        <system value="http://unitsofmeasure.org"/>
      </low>
      <high>
        <value value="29.0"/>
        <unit value="mmol/L"/>
        <code value="mmol/L"/>
        <system value="http://unitsofmeasure.org"/>
      </high>
    </referenceRange>
    
  </Observation>
  
  </resource>
  <request>
    <method value="PUT"/>
    <url value="Observation/smart-Observation-2349-lab"/>
  </request>
</entry>
<entry>
  <resource>
    
    
  <Observation>
    <meta>
        <tag>
            <system value="https://smarthealthit.org/tags"/>
            <code value="smart-8-2017"/>
        </tag>
    </meta>
  <id value="smart-Observation-2350-lab"/>
    <text>
      <status value="generated"/>
      <div xmlns="http://www.w3.org/1999/xhtml">2004-06-11: Glucose SerPl-mCnc = 116 mg/dL</div>
    </text>
    <category>
      <coding>
          <system value="http://hl7.org/fhir/observation-category"/>
          <code value="laboratory"/>
          <display value="Laboratory"/>
      </coding>
      <text value="Laboratory"/>
    </category>
    <code>
      <coding>
        <system value="http://loinc.org"/>
        <code value="2345-7"/>
        <display value="Glucose SerPl-mCnc"/>
      </coding>
      <text value="Glucose SerPl-mCnc"/>
    </code>
    <valueQuantity>
      <value value="116.0"/>
      <unit value="mg/dL"/>
      <system value="http://unitsofmeasure.org" />
      <code value=""/>
    </valueQuantity>
    
    <effectiveDateTime value="2004-06-11"/>
    <status value="final"/>
    <subject>
      <reference value="Patient/smart-1137192"/>
    </subject>
    <referenceRange>
      <meaning>
        <coding>
         <system value="http://hl7.org/fhir/referencerange-meaning"/>
         <code value="normal"/>
         <display value="Normal Range"/>
       </coding>
       <text value="Normal Range"/>
      </meaning>
      <low>
        <value value="70.0"/>
        <unit value="mg/dL"/>
        <code value="mg/dL"/>
        <system value="http://unitsofmeasure.org"/>
      </low>
      <high>
        <value value="200.0"/>
        <unit value="mg/dL"/>
        <code value="mg/dL"/>
        <system value="http://unitsofmeasure.org"/>
      </high>
    </referenceRange>
    
  </Observation>
  
  </resource>
  <request>
    <method value="PUT"/>
    <url value="Observation/smart-Observation-2350-lab"/>
  </request>
</entry>
<entry>
  <resource>
    
    
  <Observation>
    <meta>
        <tag>
            <system value="https://smarthealthit.org/tags"/>
            <code value="smart-8-2017"/>
        </tag>
    </meta>
  <id value="smart-Observation-2351-lab"/>
    <text>
      <status value="generated"/>
      <div xmlns="http://www.w3.org/1999/xhtml">2004-06-11: Bilirub SerPl-mCnc = 0.9 mg/dL</div>
    </text>
    <category>
      <coding>
          <system value="http://hl7.org/fhir/observation-category"/>
          <code value="laboratory"/>
          <display value="Laboratory"/>
      </coding>
      <text value="Laboratory"/>
    </category>
    <code>
      <coding>
        <system value="http://loinc.org"/>
        <code value="1975-2"/>
        <display value="Bilirub SerPl-mCnc"/>
      </coding>
      <text value="Bilirub SerPl-mCnc"/>
    </code>
    <valueQuantity>
      <value value="0.9"/>
      <unit value="mg/dL"/>
      <system value="http://unitsofmeasure.org" />
      <code value=""/>
    </valueQuantity>
    
    <effectiveDateTime value="2004-06-11"/>
    <status value="final"/>
    <subject>
      <reference value="Patient/smart-1137192"/>
    </subject>
    <referenceRange>
      <meaning>
        <coding>
         <system value="http://hl7.org/fhir/referencerange-meaning"/>
         <code value="normal"/>
         <display value="Normal Range"/>
       </coding>
       <text value="Normal Range"/>
      </meaning>
      <low>
        <value value="0.0"/>
        <unit value="mg/dL"/>
        <code value="mg/dL"/>
        <system value="http://unitsofmeasure.org"/>
      </low>
      <high>
        <value value="1.0"/>
        <unit value="mg/dL"/>
        <code value="mg/dL"/>
        <system value="http://unitsofmeasure.org"/>
      </high>
    </referenceRange>
    
  </Observation>
  
  </resource>
  <request>
    <method value="PUT"/>
    <url value="Observation/smart-Observation-2351-lab"/>
  </request>
</entry>
<entry>
  <resource>
    
    
  <Observation>
    <meta>
        <tag>
            <system value="https://smarthealthit.org/tags"/>
            <code value="smart-8-2017"/>
        </tag>
    </meta>
  <id value="smart-Observation-2352-lab"/>
    <text>
      <status value="generated"/>
      <div xmlns="http://www.w3.org/1999/xhtml">2004-06-11: BUN SerPl-mCnc = 10 mg/dL</div>
    </text>
    <category>
      <coding>
          <system value="http://hl7.org/fhir/observation-category"/>
          <code value="laboratory"/>
          <display value="Laboratory"/>
      </coding>
      <text value="Laboratory"/>
    </category>
    <code>
      <coding>
        <system value="http://loinc.org"/>
        <code value="3094-0"/>
        <display value="BUN SerPl-mCnc"/>
      </coding>
      <text value="BUN SerPl-mCnc"/>
    </code>
    <valueQuantity>
      <value value="10.0"/>
      <unit value="mg/dL"/>
      <system value="http://unitsofmeasure.org" />
      <code value=""/>
    </valueQuantity>
    
    <effectiveDateTime value="2004-06-11"/>
    <status value="final"/>
    <subject>
      <reference value="Patient/smart-1137192"/>
    </subject>
    <referenceRange>
      <meaning>
        <coding>
         <system value="http://hl7.org/fhir/referencerange-meaning"/>
         <code value="normal"/>
         <display value="Normal Range"/>
       </coding>
       <text value="Normal Range"/>
      </meaning>
      <low>
        <value value="5.0"/>
        <unit value="mg/dL"/>
        <code value="mg/dL"/>
        <system value="http://unitsofmeasure.org"/>
      </low>
      <high>
        <value value="20.0"/>
        <unit value="mg/dL"/>
        <code value="mg/dL"/>
        <system value="http://unitsofmeasure.org"/>
      </high>
    </referenceRange>
    
  </Observation>
  
  </resource>
  <request>
    <method value="PUT"/>
    <url value="Observation/smart-Observation-2352-lab"/>
  </request>
</entry>
<entry>
  <resource>
    
    
  <Observation>
    <meta>
        <tag>
            <system value="https://smarthealthit.org/tags"/>
            <code value="smart-8-2017"/>
        </tag>
    </meta>
  <id value="smart-Observation-2353-lab"/>
    <text>
      <status value="generated"/>
      <div xmlns="http://www.w3.org/1999/xhtml">2004-06-11: HDLc SerPl-mCnc = 31 mg/dL</div>
    </text>
    <category>
      <coding>
          <system value="http://hl7.org/fhir/observation-category"/>
          <code value="laboratory"/>
          <display value="Laboratory"/>
      </coding>
      <text value="Laboratory"/>
    </category>
    <code>
      <coding>
        <system value="http://loinc.org"/>
        <code value="2085-9"/>
        <display value="HDLc SerPl-mCnc"/>
      </coding>
      <text value="HDLc SerPl-mCnc"/>
    </code>
    <valueQuantity>
      <value value="31.0"/>
      <unit value="mg/dL"/>
      <system value="http://unitsofmeasure.org" />
      <code value=""/>
    </valueQuantity>
    
    <effectiveDateTime value="2004-06-11"/>
    <status value="final"/>
    <subject>
      <reference value="Patient/smart-1137192"/>
    </subject>
    <referenceRange>
      <meaning>
        <coding>
         <system value="http://hl7.org/fhir/referencerange-meaning"/>
         <code value="normal"/>
         <display value="Normal Range"/>
       </coding>
       <text value="Normal Range"/>
      </meaning>
      <low>
        <value value="0.0"/>
        <unit value="mg/dL"/>
        <code value="mg/dL"/>
        <system value="http://unitsofmeasure.org"/>
      </low>
      <high>
        <value value="0.0"/>
        <unit value="mg/dL"/>
        <code value="mg/dL"/>
        <system value="http://unitsofmeasure.org"/>
      </high>
    </referenceRange>
    
  </Observation>
  
  </resource>
  <request>
    <method value="PUT"/>
    <url value="Observation/smart-Observation-2353-lab"/>
  </request>
</entry>
<entry>
  <resource>
    
    
  <Observation>
    <meta>
        <tag>
            <system value="https://smarthealthit.org/tags"/>
            <code value="smart-8-2017"/>
        </tag>
    </meta>
  <id value="smart-Observation-2354-lab"/>
    <text>
      <status value="generated"/>
      <div xmlns="http://www.w3.org/1999/xhtml">2004-06-11: LDLc SerPl Calc-mCnc = 82 mg/dL</div>
    </text>
    <category>
      <coding>
          <system value="http://hl7.org/fhir/observation-category"/>
          <code value="laboratory"/>
          <display value="Laboratory"/>
      </coding>
      <text value="Laboratory"/>
    </category>
    <code>
      <coding>
        <system value="http://loinc.org"/>
        <code value="13457-7"/>
        <display value="LDLc SerPl Calc-mCnc"/>
      </coding>
      <text value="LDLc SerPl Calc-mCnc"/>
    </code>
    <valueQuantity>
      <value value="82.0"/>
      <unit value="mg/dL"/>
      <system value="http://unitsofmeasure.org" />
      <code value=""/>
    </valueQuantity>
    
    <effectiveDateTime value="2004-06-11"/>
    <status value="final"/>
    <subject>
      <reference value="Patient/smart-1137192"/>
    </subject>
    <referenceRange>
      <meaning>
        <coding>
         <system value="http://hl7.org/fhir/referencerange-meaning"/>
         <code value="normal"/>
         <display value="Normal Range"/>
       </coding>
       <text value="Normal Range"/>
      </meaning>
      <low>
        <value value="0.0"/>
        <unit value="mg/dL"/>
        <code value="mg/dL"/>
        <system value="http://unitsofmeasure.org"/>
      </low>
      <high>
        <value value="100.0"/>
        <unit value="mg/dL"/>
        <code value="mg/dL"/>
        <system value="http://unitsofmeasure.org"/>
      </high>
    </referenceRange>
    
  </Observation>
  
  </resource>
  <request>
    <method value="PUT"/>
    <url value="Observation/smart-Observation-2354-lab"/>
  </request>
</entry>
<entry>
  <resource>
    
    
  <Observation>
    <meta>
        <tag>
            <system value="https://smarthealthit.org/tags"/>
            <code value="smart-8-2017"/>
        </tag>
    </meta>
  <id value="smart-Observation-2355-lab"/>
    <text>
      <status value="generated"/>
      <div xmlns="http://www.w3.org/1999/xhtml">2004-06-11: Anion Gap3 SerPl-sCnc = 7 mmol/L</div>
    </text>
    <category>
      <coding>
          <system value="http://hl7.org/fhir/observation-category"/>
          <code value="laboratory"/>
          <display value="Laboratory"/>
      </coding>
      <text value="Laboratory"/>
    </category>
    <code>
      <coding>
        <system value="http://loinc.org"/>
        <code value="10466-1"/>
        <display value="Anion Gap3 SerPl-sCnc"/>
      </coding>
      <text value="Anion Gap3 SerPl-sCnc"/>
    </code>
    <valueQuantity>
      <value value="7.0"/>
      <unit value="mmol/L"/>
      <system value="http://unitsofmeasure.org" />
      <code value=""/>
    </valueQuantity>
    
    <effectiveDateTime value="2004-06-11"/>
    <status value="final"/>
    <subject>
      <reference value="Patient/smart-1137192"/>
    </subject>
    <referenceRange>
      <meaning>
        <coding>
         <system value="http://hl7.org/fhir/referencerange-meaning"/>
         <code value="normal"/>
         <display value="Normal Range"/>
       </coding>
       <text value="Normal Range"/>
      </meaning>
      <low>
        <value value="0.0"/>
        <unit value="mmol/L"/>
        <code value="mmol/L"/>
        <system value="http://unitsofmeasure.org"/>
      </low>
      <high>
        <value value="0.0"/>
        <unit value="mmol/L"/>
        <code value="mmol/L"/>
        <system value="http://unitsofmeasure.org"/>
      </high>
    </referenceRange>
    
  </Observation>
  
  </resource>
  <request>
    <method value="PUT"/>
    <url value="Observation/smart-Observation-2355-lab"/>
  </request>
</entry>
<entry>
  <resource>
    
    
  <Observation>
    <meta>
        <tag>
            <system value="https://smarthealthit.org/tags"/>
            <code value="smart-8-2017"/>
        </tag>
    </meta>
  <id value="smart-Observation-2356-lab"/>
    <text>
      <status value="generated"/>
      <div xmlns="http://www.w3.org/1999/xhtml">2004-06-11: ALP SerPl-cCnc = 47 U/L</div>
    </text>
    <category>
      <coding>
          <system value="http://hl7.org/fhir/observation-category"/>
          <code value="laboratory"/>
          <display value="Laboratory"/>
      </coding>
      <text value="Laboratory"/>
    </category>
    <code>
      <coding>
        <system value="http://loinc.org"/>
        <code value="6768-6"/>
        <display value="ALP SerPl-cCnc"/>
      </coding>
      <text value="ALP SerPl-cCnc"/>
    </code>
    <valueQuantity>
      <value value="47.0"/>
      <unit value="U/L"/>
      <system value="http://unitsofmeasure.org" />
      <code value=""/>
    </valueQuantity>
    
    <effectiveDateTime value="2004-06-11"/>
    <status value="final"/>
    <subject>
      <reference value="Patient/smart-1137192"/>
    </subject>
    <referenceRange>
      <meaning>
        <coding>
         <system value="http://hl7.org/fhir/referencerange-meaning"/>
         <code value="normal"/>
         <display value="Normal Range"/>
       </coding>
       <text value="Normal Range"/>
      </meaning>
      <low>
        <value value="50.0"/>
        <unit value="U/L"/>
        <code value="U/L"/>
        <system value="http://unitsofmeasure.org"/>
      </low>
      <high>
        <value value="136.0"/>
        <unit value="U/L"/>
        <code value="U/L"/>
        <system value="http://unitsofmeasure.org"/>
      </high>
    </referenceRange>
    
  </Observation>
  
  </resource>
  <request>
    <method value="PUT"/>
    <url value="Observation/smart-Observation-2356-lab"/>
  </request>
</entry>
<entry>
  <resource>
    
    
  <Observation>
    <meta>
        <tag>
            <system value="https://smarthealthit.org/tags"/>
            <code value="smart-8-2017"/>
        </tag>
    </meta>
  <id value="smart-Observation-2357-lab"/>
    <text>
      <status value="generated"/>
      <div xmlns="http://www.w3.org/1999/xhtml">2004-06-11: ALP SerPl-cCnc = 42 U/L</div>
    </text>
    <category>
      <coding>
          <system value="http://hl7.org/fhir/observation-category"/>
          <code value="laboratory"/>
          <display value="Laboratory"/>
      </coding>
      <text value="Laboratory"/>
    </category>
    <code>
      <coding>
        <system value="http://loinc.org"/>
        <code value="6768-6"/>
        <display value="ALP SerPl-cCnc"/>
      </coding>
      <text value="ALP SerPl-cCnc"/>
    </code>
    <valueQuantity>
      <value value="42.0"/>
      <unit value="U/L"/>
      <system value="http://unitsofmeasure.org" />
      <code value=""/>
    </valueQuantity>
    
    <effectiveDateTime value="2004-06-11"/>
    <status value="final"/>
    <subject>
      <reference value="Patient/smart-1137192"/>
    </subject>
    <referenceRange>
      <meaning>
        <coding>
         <system value="http://hl7.org/fhir/referencerange-meaning"/>
         <code value="normal"/>
         <display value="Normal Range"/>
       </coding>
       <text value="Normal Range"/>
      </meaning>
      <low>
        <value value="50.0"/>
        <unit value="U/L"/>
        <code value="U/L"/>
        <system value="http://unitsofmeasure.org"/>
      </low>
      <high>
        <value value="136.0"/>
        <unit value="U/L"/>
        <code value="U/L"/>
        <system value="http://unitsofmeasure.org"/>
      </high>
    </referenceRange>
    
  </Observation>
  
  </resource>
  <request>
    <method value="PUT"/>
    <url value="Observation/smart-Observation-2357-lab"/>
  </request>
</entry>
<entry>
  <resource>
    
    
  <Observation>
    <meta>
        <tag>
            <system value="https://smarthealthit.org/tags"/>
            <code value="smart-8-2017"/>
        </tag>
    </meta>
  <id value="smart-Observation-2358-lab"/>
    <text>
      <status value="generated"/>
      <div xmlns="http://www.w3.org/1999/xhtml">2004-06-11: Prot SerPl-mCnc = 7.2 g/dL</div>
    </text>
    <category>
      <coding>
          <system value="http://hl7.org/fhir/observation-category"/>
          <code value="laboratory"/>
          <display value="Laboratory"/>
      </coding>
      <text value="Laboratory"/>
    </category>
    <code>
      <coding>
        <system value="http://loinc.org"/>
        <code value="2885-2"/>
        <display value="Prot SerPl-mCnc"/>
      </coding>
      <text value="Prot SerPl-mCnc"/>
    </code>
    <valueQuantity>
      <value value="7.2"/>
      <unit value="g/dL"/>
      <system value="http://unitsofmeasure.org" />
      <code value=""/>
    </valueQuantity>
    
    <effectiveDateTime value="2004-06-11"/>
    <status value="final"/>
    <subject>
      <reference value="Patient/smart-1137192"/>
    </subject>
    <referenceRange>
      <meaning>
        <coding>
         <system value="http://hl7.org/fhir/referencerange-meaning"/>
         <code value="normal"/>
         <display value="Normal Range"/>
       </coding>
       <text value="Normal Range"/>
      </meaning>
      <low>
        <value value="6.3"/>
        <unit value="g/dL"/>
        <code value="g/dL"/>
        <system value="http://unitsofmeasure.org"/>
      </low>
      <high>
        <value value="8.2"/>
        <unit value="g/dL"/>
        <code value="g/dL"/>
        <system value="http://unitsofmeasure.org"/>
      </high>
    </referenceRange>
    
  </Observation>
  
  </resource>
  <request>
    <method value="PUT"/>
    <url value="Observation/smart-Observation-2358-lab"/>
  </request>
</entry>
<entry>
  <resource>
    
    
  <Observation>
    <meta>
        <tag>
            <system value="https://smarthealthit.org/tags"/>
            <code value="smart-8-2017"/>
        </tag>
    </meta>
  <id value="smart-Observation-2359-lab"/>
    <text>
      <status value="generated"/>
      <div xmlns="http://www.w3.org/1999/xhtml">2004-06-11: Albumin SerPl-mCnc = 4.3 g/dL</div>
    </text>
    <category>
      <coding>
          <system value="http://hl7.org/fhir/observation-category"/>
          <code value="laboratory"/>
          <display value="Laboratory"/>
      </coding>
      <text value="Laboratory"/>
    </category>
    <code>
      <coding>
        <system value="http://loinc.org"/>
        <code value="1751-7"/>
        <display value="Albumin SerPl-mCnc"/>
      </coding>
      <text value="Albumin SerPl-mCnc"/>
    </code>
    <valueQuantity>
      <value value="4.3"/>
      <unit value="g/dL"/>
      <system value="http://unitsofmeasure.org" />
      <code value=""/>
    </valueQuantity>
    
    <effectiveDateTime value="2004-06-11"/>
    <status value="final"/>
    <subject>
      <reference value="Patient/smart-1137192"/>
    </subject>
    <referenceRange>
      <meaning>
        <coding>
         <system value="http://hl7.org/fhir/referencerange-meaning"/>
         <code value="normal"/>
         <display value="Normal Range"/>
       </coding>
       <text value="Normal Range"/>
      </meaning>
      <low>
        <value value="3.5"/>
        <unit value="g/dL"/>
        <code value="g/dL"/>
        <system value="http://unitsofmeasure.org"/>
      </low>
      <high>
        <value value="5.0"/>
        <unit value="g/dL"/>
        <code value="g/dL"/>
        <system value="http://unitsofmeasure.org"/>
      </high>
    </referenceRange>
    
  </Observation>
  
  </resource>
  <request>
    <method value="PUT"/>
    <url value="Observation/smart-Observation-2359-lab"/>
  </request>
</entry>
<entry>
  <resource>
    
    
  <Observation>
    <meta>
        <tag>
            <system value="https://smarthealthit.org/tags"/>
            <code value="smart-8-2017"/>
        </tag>
    </meta>
  <id value="smart-Observation-2360-lab"/>
    <text>
      <status value="generated"/>
      <div xmlns="http://www.w3.org/1999/xhtml">2004-06-11: Calcium SerPl-mCnc = 9.3 mg/dL</div>
    </text>
    <category>
      <coding>
          <system value="http://hl7.org/fhir/observation-category"/>
          <code value="laboratory"/>
          <display value="Laboratory"/>
      </coding>
      <text value="Laboratory"/>
    </category>
    <code>
      <coding>
        <system value="http://loinc.org"/>
        <code value="17861-6"/>
        <display value="Calcium SerPl-mCnc"/>
      </coding>
      <text value="Calcium SerPl-mCnc"/>
    </code>
    <valueQuantity>
      <value value="9.3"/>
      <unit value="mg/dL"/>
      <system value="http://unitsofmeasure.org" />
      <code value=""/>
    </valueQuantity>
    
    <effectiveDateTime value="2004-06-11"/>
    <status value="final"/>
    <subject>
      <reference value="Patient/smart-1137192"/>
    </subject>
    <referenceRange>
      <meaning>
        <coding>
         <system value="http://hl7.org/fhir/referencerange-meaning"/>
         <code value="normal"/>
         <display value="Normal Range"/>
       </coding>
       <text value="Normal Range"/>
      </meaning>
      <low>
        <value value="8.5"/>
        <unit value="mg/dL"/>
        <code value="mg/dL"/>
        <system value="http://unitsofmeasure.org"/>
      </low>
      <high>
        <value value="10.5"/>
        <unit value="mg/dL"/>
        <code value="mg/dL"/>
        <system value="http://unitsofmeasure.org"/>
      </high>
    </referenceRange>
    
  </Observation>
  
  </resource>
  <request>
    <method value="PUT"/>
    <url value="Observation/smart-Observation-2360-lab"/>
  </request>
</entry>
<entry>
  <resource>
    
    
  <Observation>
    <meta>
        <tag>
            <system value="https://smarthealthit.org/tags"/>
            <code value="smart-8-2017"/>
        </tag>
    </meta>
  <id value="smart-Observation-2361-lab"/>
    <text>
      <status value="generated"/>
      <div xmlns="http://www.w3.org/1999/xhtml">2004-06-11: AST SerPl-cCnc = 33 U/L</div>
    </text>
    <category>
      <coding>
          <system value="http://hl7.org/fhir/observation-category"/>
          <code value="laboratory"/>
          <display value="Laboratory"/>
      </coding>
      <text value="Laboratory"/>
    </category>
    <code>
      <coding>
        <system value="http://loinc.org"/>
        <code value="1920-8"/>
        <display value="AST SerPl-cCnc"/>
      </coding>
      <text value="AST SerPl-cCnc"/>
    </code>
    <valueQuantity>
      <value value="33.0"/>
      <unit value="U/L"/>
      <system value="http://unitsofmeasure.org" />
      <code value=""/>
    </valueQuantity>
    
    <effectiveDateTime value="2004-06-11"/>
    <status value="final"/>
    <subject>
      <reference value="Patient/smart-1137192"/>
    </subject>
    <referenceRange>
      <meaning>
        <coding>
         <system value="http://hl7.org/fhir/referencerange-meaning"/>
         <code value="normal"/>
         <display value="Normal Range"/>
       </coding>
       <text value="Normal Range"/>
      </meaning>
      <low>
        <value value="4.0"/>
        <unit value="U/L"/>
        <code value="U/L"/>
        <system value="http://unitsofmeasure.org"/>
      </low>
      <high>
        <value value="37.0"/>
        <unit value="U/L"/>
        <code value="U/L"/>
        <system value="http://unitsofmeasure.org"/>
      </high>
    </referenceRange>
    
  </Observation>
  
  </resource>
  <request>
    <method value="PUT"/>
    <url value="Observation/smart-Observation-2361-lab"/>
  </request>
</entry>
<entry>
  <resource>
    
    
  <Observation>
    <meta>
        <tag>
            <system value="https://smarthealthit.org/tags"/>
            <code value="smart-8-2017"/>
        </tag>
    </meta>
  <id value="smart-Observation-2362-lab"/>
    <text>
      <status value="generated"/>
      <div xmlns="http://www.w3.org/1999/xhtml">2004-06-11: Sodium SerPl-sCnc = 139 mmol/L</div>
    </text>
    <category>
      <coding>
          <system value="http://hl7.org/fhir/observation-category"/>
          <code value="laboratory"/>
          <display value="Laboratory"/>
      </coding>
      <text value="Laboratory"/>
    </category>
    <code>
      <coding>
        <system value="http://loinc.org"/>
        <code value="2951-2"/>
        <display value="Sodium SerPl-sCnc"/>
      </coding>
      <text value="Sodium SerPl-sCnc"/>
    </code>
    <valueQuantity>
      <value value="139.0"/>
      <unit value="mmol/L"/>
      <system value="http://unitsofmeasure.org" />
      <code value=""/>
    </valueQuantity>
    
    <effectiveDateTime value="2004-06-11"/>
    <status value="final"/>
    <subject>
      <reference value="Patient/smart-1137192"/>
    </subject>
    <referenceRange>
      <meaning>
        <coding>
         <system value="http://hl7.org/fhir/referencerange-meaning"/>
         <code value="normal"/>
         <display value="Normal Range"/>
       </coding>
       <text value="Normal Range"/>
      </meaning>
      <low>
        <value value="135.0"/>
        <unit value="mmol/L"/>
        <code value="mmol/L"/>
        <system value="http://unitsofmeasure.org"/>
      </low>
      <high>
        <value value="145.0"/>
        <unit value="mmol/L"/>
        <code value="mmol/L"/>
        <system value="http://unitsofmeasure.org"/>
      </high>
    </referenceRange>
    
  </Observation>
  
  </resource>
  <request>
    <method value="PUT"/>
    <url value="Observation/smart-Observation-2362-lab"/>
  </request>
</entry>
<entry>
  <resource>
    
    
  <Observation>
    <meta>
        <tag>
            <system value="https://smarthealthit.org/tags"/>
            <code value="smart-8-2017"/>
        </tag>
    </meta>
  <id value="smart-Observation-2363-lab"/>
    <text>
      <status value="generated"/>
      <div xmlns="http://www.w3.org/1999/xhtml">2004-06-11: Creat SerPl-mCnc = 1.1 mg/dL</div>
    </text>
    <category>
      <coding>
          <system value="http://hl7.org/fhir/observation-category"/>
          <code value="laboratory"/>
          <display value="Laboratory"/>
      </coding>
      <text value="Laboratory"/>
    </category>
    <code>
      <coding>
        <system value="http://loinc.org"/>
        <code value="2160-0"/>
        <display value="Creat SerPl-mCnc"/>
      </coding>
      <text value="Creat SerPl-mCnc"/>
    </code>
    <valueQuantity>
      <value value="1.1"/>
      <unit value="mg/dL"/>
      <system value="http://unitsofmeasure.org" />
      <code value=""/>
    </valueQuantity>
    
    <effectiveDateTime value="2004-06-11"/>
    <status value="final"/>
    <subject>
      <reference value="Patient/smart-1137192"/>
    </subject>
    <referenceRange>
      <meaning>
        <coding>
         <system value="http://hl7.org/fhir/referencerange-meaning"/>
         <code value="normal"/>
         <display value="Normal Range"/>
       </coding>
       <text value="Normal Range"/>
      </meaning>
      <low>
        <value value="0.8"/>
        <unit value="mg/dL"/>
        <code value="mg/dL"/>
        <system value="http://unitsofmeasure.org"/>
      </low>
      <high>
        <value value="1.4"/>
        <unit value="mg/dL"/>
        <code value="mg/dL"/>
        <system value="http://unitsofmeasure.org"/>
      </high>
    </referenceRange>
    
  </Observation>
  
  </resource>
  <request>
    <method value="PUT"/>
    <url value="Observation/smart-Observation-2363-lab"/>
  </request>
</entry>
<entry>
  <resource>
    
    
  <Observation>
    <meta>
        <tag>
            <system value="https://smarthealthit.org/tags"/>
            <code value="smart-8-2017"/>
        </tag>
    </meta>
  <id value="smart-Observation-2364-lab"/>
    <text>
      <status value="generated"/>
      <div xmlns="http://www.w3.org/1999/xhtml">2004-06-11: ALT SerPl-cCnc = 60 U/L</div>
    </text>
    <category>
      <coding>
          <system value="http://hl7.org/fhir/observation-category"/>
          <code value="laboratory"/>
          <display value="Laboratory"/>
      </coding>
      <text value="Laboratory"/>
    </category>
    <code>
      <coding>
        <system value="http://loinc.org"/>
        <code value="1742-6"/>
        <display value="ALT SerPl-cCnc"/>
      </coding>
      <text value="ALT SerPl-cCnc"/>
    </code>
    <valueQuantity>
      <value value="60.0"/>
      <unit value="U/L"/>
      <system value="http://unitsofmeasure.org" />
      <code value=""/>
    </valueQuantity>
    
    <effectiveDateTime value="2004-06-11"/>
    <status value="final"/>
    <subject>
      <reference value="Patient/smart-1137192"/>
    </subject>
    <referenceRange>
      <meaning>
        <coding>
         <system value="http://hl7.org/fhir/referencerange-meaning"/>
         <code value="normal"/>
         <display value="Normal Range"/>
       </coding>
       <text value="Normal Range"/>
      </meaning>
      <low>
        <value value="0.0"/>
        <unit value="U/L"/>
        <code value="U/L"/>
        <system value="http://unitsofmeasure.org"/>
      </low>
      <high>
        <value value="50.0"/>
        <unit value="U/L"/>
        <code value="U/L"/>
        <system value="http://unitsofmeasure.org"/>
      </high>
    </referenceRange>
    
  </Observation>
  
  </resource>
  <request>
    <method value="PUT"/>
    <url value="Observation/smart-Observation-2364-lab"/>
  </request>
</entry>
<entry>
  <resource>
    
    
  <Observation>
    <meta>
        <tag>
            <system value="https://smarthealthit.org/tags"/>
            <code value="smart-8-2017"/>
        </tag>
    </meta>
  <id value="smart-Observation-2365-lab"/>
    <text>
      <status value="generated"/>
      <div xmlns="http://www.w3.org/1999/xhtml">2004-06-11: ALT SerPl-cCnc = 58 U/L</div>
    </text>
    <category>
      <coding>
          <system value="http://hl7.org/fhir/observation-category"/>
          <code value="laboratory"/>
          <display value="Laboratory"/>
      </coding>
      <text value="Laboratory"/>
    </category>
    <code>
      <coding>
        <system value="http://loinc.org"/>
        <code value="1742-6"/>
        <display value="ALT SerPl-cCnc"/>
      </coding>
      <text value="ALT SerPl-cCnc"/>
    </code>
    <valueQuantity>
      <value value="58.0"/>
      <unit value="U/L"/>
      <system value="http://unitsofmeasure.org" />
      <code value=""/>
    </valueQuantity>
    
    <effectiveDateTime value="2004-06-11"/>
    <status value="final"/>
    <subject>
      <reference value="Patient/smart-1137192"/>
    </subject>
    <referenceRange>
      <meaning>
        <coding>
         <system value="http://hl7.org/fhir/referencerange-meaning"/>
         <code value="normal"/>
         <display value="Normal Range"/>
       </coding>
       <text value="Normal Range"/>
      </meaning>
      <low>
        <value value="0.0"/>
        <unit value="U/L"/>
        <code value="U/L"/>
        <system value="http://unitsofmeasure.org"/>
      </low>
      <high>
        <value value="50.0"/>
        <unit value="U/L"/>
        <code value="U/L"/>
        <system value="http://unitsofmeasure.org"/>
      </high>
    </referenceRange>
    
  </Observation>
  
  </resource>
  <request>
    <method value="PUT"/>
    <url value="Observation/smart-Observation-2365-lab"/>
  </request>
</entry>
<entry>
  <resource>
    
    
  <Observation>
    <meta>
        <tag>
            <system value="https://smarthealthit.org/tags"/>
            <code value="smart-8-2017"/>
        </tag>
    </meta>
  <id value="smart-Observation-2366-lab"/>
    <text>
      <status value="generated"/>
      <div xmlns="http://www.w3.org/1999/xhtml">2004-06-11: Potassium SerPl-sCnc = 4.6 mmol/L</div>
    </text>
    <category>
      <coding>
          <system value="http://hl7.org/fhir/observation-category"/>
          <code value="laboratory"/>
          <display value="Laboratory"/>
      </coding>
      <text value="Laboratory"/>
    </category>
    <code>
      <coding>
        <system value="http://loinc.org"/>
        <code value="2823-3"/>
        <display value="Potassium SerPl-sCnc"/>
      </coding>
      <text value="Potassium SerPl-sCnc"/>
    </code>
    <valueQuantity>
      <value value="4.6"/>
      <unit value="mmol/L"/>
      <system value="http://unitsofmeasure.org" />
      <code value=""/>
    </valueQuantity>
    
    <effectiveDateTime value="2004-06-11"/>
    <status value="final"/>
    <subject>
      <reference value="Patient/smart-1137192"/>
    </subject>
    <referenceRange>
      <meaning>
        <coding>
         <system value="http://hl7.org/fhir/referencerange-meaning"/>
         <code value="normal"/>
         <display value="Normal Range"/>
       </coding>
       <text value="Normal Range"/>
      </meaning>
      <low>
        <value value="3.5"/>
        <unit value="mmol/L"/>
        <code value="mmol/L"/>
        <system value="http://unitsofmeasure.org"/>
      </low>
      <high>
        <value value="5.5"/>
        <unit value="mmol/L"/>
        <code value="mmol/L"/>
        <system value="http://unitsofmeasure.org"/>
      </high>
    </referenceRange>
    
  </Observation>
  
  </resource>
  <request>
    <method value="PUT"/>
    <url value="Observation/smart-Observation-2366-lab"/>
  </request>
</entry>
<entry>
  <resource>
    
    
  <Observation>
    <meta>
        <tag>
            <system value="https://smarthealthit.org/tags"/>
            <code value="smart-8-2017"/>
        </tag>
    </meta>
  <id value="smart-Observation-2367-lab"/>
    <text>
      <status value="generated"/>
      <div xmlns="http://www.w3.org/1999/xhtml">2004-06-11: Chloride SerPl-sCnc = 106 mmol/L</div>
    </text>
    <category>
      <coding>
          <system value="http://hl7.org/fhir/observation-category"/>
          <code value="laboratory"/>
          <display value="Laboratory"/>
      </coding>
      <text value="Laboratory"/>
    </category>
    <code>
      <coding>
        <system value="http://loinc.org"/>
        <code value="2075-0"/>
        <display value="Chloride SerPl-sCnc"/>
      </coding>
      <text value="Chloride SerPl-sCnc"/>
    </code>
    <valueQuantity>
      <value value="106.0"/>
      <unit value="mmol/L"/>
      <system value="http://unitsofmeasure.org" />
      <code value=""/>
    </valueQuantity>
    
    <effectiveDateTime value="2004-06-11"/>
    <status value="final"/>
    <subject>
      <reference value="Patient/smart-1137192"/>
    </subject>
    <referenceRange>
      <meaning>
        <coding>
         <system value="http://hl7.org/fhir/referencerange-meaning"/>
         <code value="normal"/>
         <display value="Normal Range"/>
       </coding>
       <text value="Normal Range"/>
      </meaning>
      <low>
        <value value="95.0"/>
        <unit value="mmol/L"/>
        <code value="mmol/L"/>
        <system value="http://unitsofmeasure.org"/>
      </low>
      <high>
        <value value="105.0"/>
        <unit value="mmol/L"/>
        <code value="mmol/L"/>
        <system value="http://unitsofmeasure.org"/>
      </high>
    </referenceRange>
    
  </Observation>
  
  </resource>
  <request>
    <method value="PUT"/>
    <url value="Observation/smart-Observation-2367-lab"/>
  </request>
</entry>
<entry>
  <resource>
    
    
  <Observation>
    <meta>
        <tag>
            <system value="https://smarthealthit.org/tags"/>
            <code value="smart-8-2017"/>
        </tag>
    </meta>
  <id value="smart-Observation-2368-lab"/>
    <text>
      <status value="generated"/>
      <div xmlns="http://www.w3.org/1999/xhtml">2004-06-11: Cholest SerPl-mCnc = 143 mg/dL</div>
    </text>
    <category>
      <coding>
          <system value="http://hl7.org/fhir/observation-category"/>
          <code value="laboratory"/>
          <display value="Laboratory"/>
      </coding>
      <text value="Laboratory"/>
    </category>
    <code>
      <coding>
        <system value="http://loinc.org"/>
        <code value="2093-3"/>
        <display value="Cholest SerPl-mCnc"/>
      </coding>
      <text value="Cholest SerPl-mCnc"/>
    </code>
    <valueQuantity>
      <value value="143.0"/>
      <unit value="mg/dL"/>
      <system value="http://unitsofmeasure.org" />
      <code value=""/>
    </valueQuantity>
    
    <effectiveDateTime value="2004-06-11"/>
    <status value="final"/>
    <subject>
      <reference value="Patient/smart-1137192"/>
    </subject>
    <referenceRange>
      <meaning>
        <coding>
         <system value="http://hl7.org/fhir/referencerange-meaning"/>
         <code value="normal"/>
         <display value="Normal Range"/>
       </coding>
       <text value="Normal Range"/>
      </meaning>
      <low>
        <value value="0.0"/>
        <unit value="mg/dL"/>
        <code value="mg/dL"/>
        <system value="http://unitsofmeasure.org"/>
      </low>
      <high>
        <value value="200.0"/>
        <unit value="mg/dL"/>
        <code value="mg/dL"/>
        <system value="http://unitsofmeasure.org"/>
      </high>
    </referenceRange>
    
  </Observation>
  
  </resource>
  <request>
    <method value="PUT"/>
    <url value="Observation/smart-Observation-2368-lab"/>
  </request>
</entry>
<entry>
  <resource>
    
    
  <Observation>
    <meta>
        <tag>
            <system value="https://smarthealthit.org/tags"/>
            <code value="smart-8-2017"/>
        </tag>
    </meta>
  <id value="smart-Observation-2369-lab"/>
    <text>
      <status value="generated"/>
      <div xmlns="http://www.w3.org/1999/xhtml">2005-06-03: Trigl SerPl-mCnc = 115 mg/dL</div>
    </text>
    <category>
      <coding>
          <system value="http://hl7.org/fhir/observation-category"/>
          <code value="laboratory"/>
          <display value="Laboratory"/>
      </coding>
      <text value="Laboratory"/>
    </category>
    <code>
      <coding>
        <system value="http://loinc.org"/>
        <code value="2571-8"/>
        <display value="Trigl SerPl-mCnc"/>
      </coding>
      <text value="Trigl SerPl-mCnc"/>
    </code>
    <valueQuantity>
      <value value="115.0"/>
      <unit value="mg/dL"/>
      <system value="http://unitsofmeasure.org" />
      <code value=""/>
    </valueQuantity>
    
    <effectiveDateTime value="2005-06-03"/>
    <status value="final"/>
    <subject>
      <reference value="Patient/smart-1137192"/>
    </subject>
    <referenceRange>
      <meaning>
        <coding>
         <system value="http://hl7.org/fhir/referencerange-meaning"/>
         <code value="normal"/>
         <display value="Normal Range"/>
       </coding>
       <text value="Normal Range"/>
      </meaning>
      <low>
        <value value="0.0"/>
        <unit value="mg/dL"/>
        <code value="mg/dL"/>
        <system value="http://unitsofmeasure.org"/>
      </low>
      <high>
        <value value="150.0"/>
        <unit value="mg/dL"/>
        <code value="mg/dL"/>
        <system value="http://unitsofmeasure.org"/>
      </high>
    </referenceRange>
    
  </Observation>
  
  </resource>
  <request>
    <method value="PUT"/>
    <url value="Observation/smart-Observation-2369-lab"/>
  </request>
</entry>
<entry>
  <resource>
    
    
  <Observation>
    <meta>
        <tag>
            <system value="https://smarthealthit.org/tags"/>
            <code value="smart-8-2017"/>
        </tag>
    </meta>
  <id value="smart-Observation-2370-lab"/>
    <text>
      <status value="generated"/>
      <div xmlns="http://www.w3.org/1999/xhtml">2005-06-03: Cholest SerPl-mCnc = 169 mg/dL</div>
    </text>
    <category>
      <coding>
          <system value="http://hl7.org/fhir/observation-category"/>
          <code value="laboratory"/>
          <display value="Laboratory"/>
      </coding>
      <text value="Laboratory"/>
    </category>
    <code>
      <coding>
        <system value="http://loinc.org"/>
        <code value="2093-3"/>
        <display value="Cholest SerPl-mCnc"/>
      </coding>
      <text value="Cholest SerPl-mCnc"/>
    </code>
    <valueQuantity>
      <value value="169.0"/>
      <unit value="mg/dL"/>
      <system value="http://unitsofmeasure.org" />
      <code value=""/>
    </valueQuantity>
    
    <effectiveDateTime value="2005-06-03"/>
    <status value="final"/>
    <subject>
      <reference value="Patient/smart-1137192"/>
    </subject>
    <referenceRange>
      <meaning>
        <coding>
         <system value="http://hl7.org/fhir/referencerange-meaning"/>
         <code value="normal"/>
         <display value="Normal Range"/>
       </coding>
       <text value="Normal Range"/>
      </meaning>
      <low>
        <value value="0.0"/>
        <unit value="mg/dL"/>
        <code value="mg/dL"/>
        <system value="http://unitsofmeasure.org"/>
      </low>
      <high>
        <value value="200.0"/>
        <unit value="mg/dL"/>
        <code value="mg/dL"/>
        <system value="http://unitsofmeasure.org"/>
      </high>
    </referenceRange>
    
  </Observation>
  
  </resource>
  <request>
    <method value="PUT"/>
    <url value="Observation/smart-Observation-2370-lab"/>
  </request>
</entry>
<entry>
  <resource>
    
    
  <Observation>
    <meta>
        <tag>
            <system value="https://smarthealthit.org/tags"/>
            <code value="smart-8-2017"/>
        </tag>
    </meta>
  <id value="smart-Observation-2371-lab"/>
    <text>
      <status value="generated"/>
      <div xmlns="http://www.w3.org/1999/xhtml">2005-06-03: Glucose SerPl-mCnc = 112 mg/dL</div>
    </text>
    <category>
      <coding>
          <system value="http://hl7.org/fhir/observation-category"/>
          <code value="laboratory"/>
          <display value="Laboratory"/>
      </coding>
      <text value="Laboratory"/>
    </category>
    <code>
      <coding>
        <system value="http://loinc.org"/>
        <code value="2345-7"/>
        <display value="Glucose SerPl-mCnc"/>
      </coding>
      <text value="Glucose SerPl-mCnc"/>
    </code>
    <valueQuantity>
      <value value="112.0"/>
      <unit value="mg/dL"/>
      <system value="http://unitsofmeasure.org" />
      <code value=""/>
    </valueQuantity>
    
    <effectiveDateTime value="2005-06-03"/>
    <status value="final"/>
    <subject>
      <reference value="Patient/smart-1137192"/>
    </subject>
    <referenceRange>
      <meaning>
        <coding>
         <system value="http://hl7.org/fhir/referencerange-meaning"/>
         <code value="normal"/>
         <display value="Normal Range"/>
       </coding>
       <text value="Normal Range"/>
      </meaning>
      <low>
        <value value="70.0"/>
        <unit value="mg/dL"/>
        <code value="mg/dL"/>
        <system value="http://unitsofmeasure.org"/>
      </low>
      <high>
        <value value="109.0"/>
        <unit value="mg/dL"/>
        <code value="mg/dL"/>
        <system value="http://unitsofmeasure.org"/>
      </high>
    </referenceRange>
    
  </Observation>
  
  </resource>
  <request>
    <method value="PUT"/>
    <url value="Observation/smart-Observation-2371-lab"/>
  </request>
</entry>
<entry>
  <resource>
    
    
  <Observation>
    <meta>
        <tag>
            <system value="https://smarthealthit.org/tags"/>
            <code value="smart-8-2017"/>
        </tag>
    </meta>
  <id value="smart-Observation-2372-lab"/>
    <text>
      <status value="generated"/>
      <div xmlns="http://www.w3.org/1999/xhtml">2005-06-03: BUN SerPl-mCnc = 7 mg/dL</div>
    </text>
    <category>
      <coding>
          <system value="http://hl7.org/fhir/observation-category"/>
          <code value="laboratory"/>
          <display value="Laboratory"/>
      </coding>
      <text value="Laboratory"/>
    </category>
    <code>
      <coding>
        <system value="http://loinc.org"/>
        <code value="3094-0"/>
        <display value="BUN SerPl-mCnc"/>
      </coding>
      <text value="BUN SerPl-mCnc"/>
    </code>
    <valueQuantity>
      <value value="7.0"/>
      <unit value="mg/dL"/>
      <system value="http://unitsofmeasure.org" />
      <code value=""/>
    </valueQuantity>
    
    <effectiveDateTime value="2005-06-03"/>
    <status value="final"/>
    <subject>
      <reference value="Patient/smart-1137192"/>
    </subject>
    <referenceRange>
      <meaning>
        <coding>
         <system value="http://hl7.org/fhir/referencerange-meaning"/>
         <code value="normal"/>
         <display value="Normal Range"/>
       </coding>
       <text value="Normal Range"/>
      </meaning>
      <low>
        <value value="5.0"/>
        <unit value="mg/dL"/>
        <code value="mg/dL"/>
        <system value="http://unitsofmeasure.org"/>
      </low>
      <high>
        <value value="20.0"/>
        <unit value="mg/dL"/>
        <code value="mg/dL"/>
        <system value="http://unitsofmeasure.org"/>
      </high>
    </referenceRange>
    
  </Observation>
  
  </resource>
  <request>
    <method value="PUT"/>
    <url value="Observation/smart-Observation-2372-lab"/>
  </request>
</entry>
<entry>
  <resource>
    
    
  <Observation>
    <meta>
        <tag>
            <system value="https://smarthealthit.org/tags"/>
            <code value="smart-8-2017"/>
        </tag>
    </meta>
  <id value="smart-Observation-2373-lab"/>
    <text>
      <status value="generated"/>
      <div xmlns="http://www.w3.org/1999/xhtml">2005-06-03: HDLc SerPl-mCnc = 45 mg/dL</div>
    </text>
    <category>
      <coding>
          <system value="http://hl7.org/fhir/observation-category"/>
          <code value="laboratory"/>
          <display value="Laboratory"/>
      </coding>
      <text value="Laboratory"/>
    </category>
    <code>
      <coding>
        <system value="http://loinc.org"/>
        <code value="2085-9"/>
        <display value="HDLc SerPl-mCnc"/>
      </coding>
      <text value="HDLc SerPl-mCnc"/>
    </code>
    <valueQuantity>
      <value value="45.0"/>
      <unit value="mg/dL"/>
      <system value="http://unitsofmeasure.org" />
      <code value=""/>
    </valueQuantity>
    
    <effectiveDateTime value="2005-06-03"/>
    <status value="final"/>
    <subject>
      <reference value="Patient/smart-1137192"/>
    </subject>
    <referenceRange>
      <meaning>
        <coding>
         <system value="http://hl7.org/fhir/referencerange-meaning"/>
         <code value="normal"/>
         <display value="Normal Range"/>
       </coding>
       <text value="Normal Range"/>
      </meaning>
      <low>
        <value value="0.0"/>
        <unit value="mg/dL"/>
        <code value="mg/dL"/>
        <system value="http://unitsofmeasure.org"/>
      </low>
      <high>
        <value value="0.0"/>
        <unit value="mg/dL"/>
        <code value="mg/dL"/>
        <system value="http://unitsofmeasure.org"/>
      </high>
    </referenceRange>
    
  </Observation>
  
  </resource>
  <request>
    <method value="PUT"/>
    <url value="Observation/smart-Observation-2373-lab"/>
  </request>
</entry>
<entry>
  <resource>
    
    
  <Observation>
    <meta>
        <tag>
            <system value="https://smarthealthit.org/tags"/>
            <code value="smart-8-2017"/>
        </tag>
    </meta>
  <id value="smart-Observation-2374-lab"/>
    <text>
      <status value="generated"/>
      <div xmlns="http://www.w3.org/1999/xhtml">2005-06-03: LDLc SerPl Calc-mCnc = 101 mg/dL</div>
    </text>
    <category>
      <coding>
          <system value="http://hl7.org/fhir/observation-category"/>
          <code value="laboratory"/>
          <display value="Laboratory"/>
      </coding>
      <text value="Laboratory"/>
    </category>
    <code>
      <coding>
        <system value="http://loinc.org"/>
        <code value="13457-7"/>
        <display value="LDLc SerPl Calc-mCnc"/>
      </coding>
      <text value="LDLc SerPl Calc-mCnc"/>
    </code>
    <valueQuantity>
      <value value="101.0"/>
      <unit value="mg/dL"/>
      <system value="http://unitsofmeasure.org" />
      <code value=""/>
    </valueQuantity>
    
    <effectiveDateTime value="2005-06-03"/>
    <status value="final"/>
    <subject>
      <reference value="Patient/smart-1137192"/>
    </subject>
    <referenceRange>
      <meaning>
        <coding>
         <system value="http://hl7.org/fhir/referencerange-meaning"/>
         <code value="normal"/>
         <display value="Normal Range"/>
       </coding>
       <text value="Normal Range"/>
      </meaning>
      <low>
        <value value="0.0"/>
        <unit value="mg/dL"/>
        <code value="mg/dL"/>
        <system value="http://unitsofmeasure.org"/>
      </low>
      <high>
        <value value="100.0"/>
        <unit value="mg/dL"/>
        <code value="mg/dL"/>
        <system value="http://unitsofmeasure.org"/>
      </high>
    </referenceRange>
    
  </Observation>
  
  </resource>
  <request>
    <method value="PUT"/>
    <url value="Observation/smart-Observation-2374-lab"/>
  </request>
</entry>
<entry>
  <resource>
    
    
  <Observation>
    <meta>
        <tag>
            <system value="https://smarthealthit.org/tags"/>
            <code value="smart-8-2017"/>
        </tag>
    </meta>
  <id value="smart-Observation-2375-lab"/>
    <text>
      <status value="generated"/>
      <div xmlns="http://www.w3.org/1999/xhtml">2005-06-03: Anion Gap3 SerPl-sCnc = 9 mmol/L</div>
    </text>
    <category>
      <coding>
          <system value="http://hl7.org/fhir/observation-category"/>
          <code value="laboratory"/>
          <display value="Laboratory"/>
      </coding>
      <text value="Laboratory"/>
    </category>
    <code>
      <coding>
        <system value="http://loinc.org"/>
        <code value="10466-1"/>
        <display value="Anion Gap3 SerPl-sCnc"/>
      </coding>
      <text value="Anion Gap3 SerPl-sCnc"/>
    </code>
    <valueQuantity>
      <value value="9.0"/>
      <unit value="mmol/L"/>
      <system value="http://unitsofmeasure.org" />
      <code value=""/>
    </valueQuantity>
    
    <effectiveDateTime value="2005-06-03"/>
    <status value="final"/>
    <subject>
      <reference value="Patient/smart-1137192"/>
    </subject>
    <referenceRange>
      <meaning>
        <coding>
         <system value="http://hl7.org/fhir/referencerange-meaning"/>
         <code value="normal"/>
         <display value="Normal Range"/>
       </coding>
       <text value="Normal Range"/>
      </meaning>
      <low>
        <value value="0.0"/>
        <unit value="mmol/L"/>
        <code value="mmol/L"/>
        <system value="http://unitsofmeasure.org"/>
      </low>
      <high>
        <value value="0.0"/>
        <unit value="mmol/L"/>
        <code value="mmol/L"/>
        <system value="http://unitsofmeasure.org"/>
      </high>
    </referenceRange>
    
  </Observation>
  
  </resource>
  <request>
    <method value="PUT"/>
    <url value="Observation/smart-Observation-2375-lab"/>
  </request>
</entry>
<entry>
  <resource>
    
    
  <Observation>
    <meta>
        <tag>
            <system value="https://smarthealthit.org/tags"/>
            <code value="smart-8-2017"/>
        </tag>
    </meta>
  <id value="smart-Observation-2376-lab"/>
    <text>
      <status value="generated"/>
      <div xmlns="http://www.w3.org/1999/xhtml">2005-06-03: Calcium SerPl-mCnc = 9.1 mg/dL</div>
    </text>
    <category>
      <coding>
          <system value="http://hl7.org/fhir/observation-category"/>
          <code value="laboratory"/>
          <display value="Laboratory"/>
      </coding>
      <text value="Laboratory"/>
    </category>
    <code>
      <coding>
        <system value="http://loinc.org"/>
        <code value="17861-6"/>
        <display value="Calcium SerPl-mCnc"/>
      </coding>
      <text value="Calcium SerPl-mCnc"/>
    </code>
    <valueQuantity>
      <value value="9.1"/>
      <unit value="mg/dL"/>
      <system value="http://unitsofmeasure.org" />
      <code value=""/>
    </valueQuantity>
    
    <effectiveDateTime value="2005-06-03"/>
    <status value="final"/>
    <subject>
      <reference value="Patient/smart-1137192"/>
    </subject>
    <referenceRange>
      <meaning>
        <coding>
         <system value="http://hl7.org/fhir/referencerange-meaning"/>
         <code value="normal"/>
         <display value="Normal Range"/>
       </coding>
       <text value="Normal Range"/>
      </meaning>
      <low>
        <value value="8.5"/>
        <unit value="mg/dL"/>
        <code value="mg/dL"/>
        <system value="http://unitsofmeasure.org"/>
      </low>
      <high>
        <value value="10.5"/>
        <unit value="mg/dL"/>
        <code value="mg/dL"/>
        <system value="http://unitsofmeasure.org"/>
      </high>
    </referenceRange>
    
  </Observation>
  
  </resource>
  <request>
    <method value="PUT"/>
    <url value="Observation/smart-Observation-2376-lab"/>
  </request>
</entry>
<entry>
  <resource>
    
    
  <Observation>
    <meta>
        <tag>
            <system value="https://smarthealthit.org/tags"/>
            <code value="smart-8-2017"/>
        </tag>
    </meta>
  <id value="smart-Observation-2377-lab"/>
    <text>
      <status value="generated"/>
      <div xmlns="http://www.w3.org/1999/xhtml">2005-06-03: Sodium SerPl-sCnc = 140 mmol/L</div>
    </text>
    <category>
      <coding>
          <system value="http://hl7.org/fhir/observation-category"/>
          <code value="laboratory"/>
          <display value="Laboratory"/>
      </coding>
      <text value="Laboratory"/>
    </category>
    <code>
      <coding>
        <system value="http://loinc.org"/>
        <code value="2951-2"/>
        <display value="Sodium SerPl-sCnc"/>
      </coding>
      <text value="Sodium SerPl-sCnc"/>
    </code>
    <valueQuantity>
      <value value="140.0"/>
      <unit value="mmol/L"/>
      <system value="http://unitsofmeasure.org" />
      <code value=""/>
    </valueQuantity>
    
    <effectiveDateTime value="2005-06-03"/>
    <status value="final"/>
    <subject>
      <reference value="Patient/smart-1137192"/>
    </subject>
    <referenceRange>
      <meaning>
        <coding>
         <system value="http://hl7.org/fhir/referencerange-meaning"/>
         <code value="normal"/>
         <display value="Normal Range"/>
       </coding>
       <text value="Normal Range"/>
      </meaning>
      <low>
        <value value="135.0"/>
        <unit value="mmol/L"/>
        <code value="mmol/L"/>
        <system value="http://unitsofmeasure.org"/>
      </low>
      <high>
        <value value="145.0"/>
        <unit value="mmol/L"/>
        <code value="mmol/L"/>
        <system value="http://unitsofmeasure.org"/>
      </high>
    </referenceRange>
    
  </Observation>
  
  </resource>
  <request>
    <method value="PUT"/>
    <url value="Observation/smart-Observation-2377-lab"/>
  </request>
</entry>
<entry>
  <resource>
    
    
  <Observation>
    <meta>
        <tag>
            <system value="https://smarthealthit.org/tags"/>
            <code value="smart-8-2017"/>
        </tag>
    </meta>
  <id value="smart-Observation-2378-lab"/>
    <text>
      <status value="generated"/>
      <div xmlns="http://www.w3.org/1999/xhtml">2005-06-03: Creat SerPl-mCnc = 1.1 mg/dL</div>
    </text>
    <category>
      <coding>
          <system value="http://hl7.org/fhir/observation-category"/>
          <code value="laboratory"/>
          <display value="Laboratory"/>
      </coding>
      <text value="Laboratory"/>
    </category>
    <code>
      <coding>
        <system value="http://loinc.org"/>
        <code value="2160-0"/>
        <display value="Creat SerPl-mCnc"/>
      </coding>
      <text value="Creat SerPl-mCnc"/>
    </code>
    <valueQuantity>
      <value value="1.1"/>
      <unit value="mg/dL"/>
      <system value="http://unitsofmeasure.org" />
      <code value=""/>
    </valueQuantity>
    
    <effectiveDateTime value="2005-06-03"/>
    <status value="final"/>
    <subject>
      <reference value="Patient/smart-1137192"/>
    </subject>
    <referenceRange>
      <meaning>
        <coding>
         <system value="http://hl7.org/fhir/referencerange-meaning"/>
         <code value="normal"/>
         <display value="Normal Range"/>
       </coding>
       <text value="Normal Range"/>
      </meaning>
      <low>
        <value value="0.8"/>
        <unit value="mg/dL"/>
        <code value="mg/dL"/>
        <system value="http://unitsofmeasure.org"/>
      </low>
      <high>
        <value value="1.4"/>
        <unit value="mg/dL"/>
        <code value="mg/dL"/>
        <system value="http://unitsofmeasure.org"/>
      </high>
    </referenceRange>
    
  </Observation>
  
  </resource>
  <request>
    <method value="PUT"/>
    <url value="Observation/smart-Observation-2378-lab"/>
  </request>
</entry>
<entry>
  <resource>
    
    
  <Observation>
    <meta>
        <tag>
            <system value="https://smarthealthit.org/tags"/>
            <code value="smart-8-2017"/>
        </tag>
    </meta>
  <id value="smart-Observation-2379-lab"/>
    <text>
      <status value="generated"/>
      <div xmlns="http://www.w3.org/1999/xhtml">2005-06-03: Potassium SerPl-sCnc = 4 mmol/L</div>
    </text>
    <category>
      <coding>
          <system value="http://hl7.org/fhir/observation-category"/>
          <code value="laboratory"/>
          <display value="Laboratory"/>
      </coding>
      <text value="Laboratory"/>
    </category>
    <code>
      <coding>
        <system value="http://loinc.org"/>
        <code value="2823-3"/>
        <display value="Potassium SerPl-sCnc"/>
      </coding>
      <text value="Potassium SerPl-sCnc"/>
    </code>
    <valueQuantity>
      <value value="4.0"/>
      <unit value="mmol/L"/>
      <system value="http://unitsofmeasure.org" />
      <code value=""/>
    </valueQuantity>
    
    <effectiveDateTime value="2005-06-03"/>
    <status value="final"/>
    <subject>
      <reference value="Patient/smart-1137192"/>
    </subject>
    <referenceRange>
      <meaning>
        <coding>
         <system value="http://hl7.org/fhir/referencerange-meaning"/>
         <code value="normal"/>
         <display value="Normal Range"/>
       </coding>
       <text value="Normal Range"/>
      </meaning>
      <low>
        <value value="3.5"/>
        <unit value="mmol/L"/>
        <code value="mmol/L"/>
        <system value="http://unitsofmeasure.org"/>
      </low>
      <high>
        <value value="5.5"/>
        <unit value="mmol/L"/>
        <code value="mmol/L"/>
        <system value="http://unitsofmeasure.org"/>
      </high>
    </referenceRange>
    
  </Observation>
  
  </resource>
  <request>
    <method value="PUT"/>
    <url value="Observation/smart-Observation-2379-lab"/>
  </request>
</entry>
<entry>
  <resource>
    
    
  <Observation>
    <meta>
        <tag>
            <system value="https://smarthealthit.org/tags"/>
            <code value="smart-8-2017"/>
        </tag>
    </meta>
  <id value="smart-Observation-2380-lab"/>
    <text>
      <status value="generated"/>
      <div xmlns="http://www.w3.org/1999/xhtml">2005-06-03: Chloride SerPl-sCnc = 105 mmol/L</div>
    </text>
    <category>
      <coding>
          <system value="http://hl7.org/fhir/observation-category"/>
          <code value="laboratory"/>
          <display value="Laboratory"/>
      </coding>
      <text value="Laboratory"/>
    </category>
    <code>
      <coding>
        <system value="http://loinc.org"/>
        <code value="2075-0"/>
        <display value="Chloride SerPl-sCnc"/>
      </coding>
      <text value="Chloride SerPl-sCnc"/>
    </code>
    <valueQuantity>
      <value value="105.0"/>
      <unit value="mmol/L"/>
      <system value="http://unitsofmeasure.org" />
      <code value=""/>
    </valueQuantity>
    
    <effectiveDateTime value="2005-06-03"/>
    <status value="final"/>
    <subject>
      <reference value="Patient/smart-1137192"/>
    </subject>
    <referenceRange>
      <meaning>
        <coding>
         <system value="http://hl7.org/fhir/referencerange-meaning"/>
         <code value="normal"/>
         <display value="Normal Range"/>
       </coding>
       <text value="Normal Range"/>
      </meaning>
      <low>
        <value value="95.0"/>
        <unit value="mmol/L"/>
        <code value="mmol/L"/>
        <system value="http://unitsofmeasure.org"/>
      </low>
      <high>
        <value value="105.0"/>
        <unit value="mmol/L"/>
        <code value="mmol/L"/>
        <system value="http://unitsofmeasure.org"/>
      </high>
    </referenceRange>
    
  </Observation>
  
  </resource>
  <request>
    <method value="PUT"/>
    <url value="Observation/smart-Observation-2380-lab"/>
  </request>
</entry>
<entry>
  <resource>
    
    
  <Observation>
    <meta>
        <tag>
            <system value="https://smarthealthit.org/tags"/>
            <code value="smart-8-2017"/>
        </tag>
    </meta>
  <id value="smart-Observation-2381-lab"/>
    <text>
      <status value="generated"/>
      <div xmlns="http://www.w3.org/1999/xhtml">2005-06-03: CO2 SerPl-sCnc = 26 mmol/L</div>
    </text>
    <category>
      <coding>
          <system value="http://hl7.org/fhir/observation-category"/>
          <code value="laboratory"/>
          <display value="Laboratory"/>
      </coding>
      <text value="Laboratory"/>
    </category>
    <code>
      <coding>
        <system value="http://loinc.org"/>
        <code value="2028-9"/>
        <display value="CO2 SerPl-sCnc"/>
      </coding>
      <text value="CO2 SerPl-sCnc"/>
    </code>
    <valueQuantity>
      <value value="26.0"/>
      <unit value="mmol/L"/>
      <system value="http://unitsofmeasure.org" />
      <code value=""/>
    </valueQuantity>
    
    <effectiveDateTime value="2005-06-03"/>
    <status value="final"/>
    <subject>
      <reference value="Patient/smart-1137192"/>
    </subject>
    <referenceRange>
      <meaning>
        <coding>
         <system value="http://hl7.org/fhir/referencerange-meaning"/>
         <code value="normal"/>
         <display value="Normal Range"/>
       </coding>
       <text value="Normal Range"/>
      </meaning>
      <low>
        <value value="22.0"/>
        <unit value="mmol/L"/>
        <code value="mmol/L"/>
        <system value="http://unitsofmeasure.org"/>
      </low>
      <high>
        <value value="29.0"/>
        <unit value="mmol/L"/>
        <code value="mmol/L"/>
        <system value="http://unitsofmeasure.org"/>
      </high>
    </referenceRange>
    
  </Observation>
  
  </resource>
  <request>
    <method value="PUT"/>
    <url value="Observation/smart-Observation-2381-lab"/>
  </request>
</entry>
<entry>
  <resource>
    
    
  <Observation>
    <meta>
        <tag>
            <system value="https://smarthealthit.org/tags"/>
            <code value="smart-8-2017"/>
        </tag>
    </meta>
  <id value="smart-Observation-2382-lab"/>
    <text>
      <status value="generated"/>
      <div xmlns="http://www.w3.org/1999/xhtml">2006-05-26: LDLc SerPl Calc-mCnc = 56 mg/dL</div>
    </text>
    <category>
      <coding>
          <system value="http://hl7.org/fhir/observation-category"/>
          <code value="laboratory"/>
          <display value="Laboratory"/>
      </coding>
      <text value="Laboratory"/>
    </category>
    <code>
      <coding>
        <system value="http://loinc.org"/>
        <code value="13457-7"/>
        <display value="LDLc SerPl Calc-mCnc"/>
      </coding>
      <text value="LDLc SerPl Calc-mCnc"/>
    </code>
    <valueQuantity>
      <value value="56.0"/>
      <unit value="mg/dL"/>
      <system value="http://unitsofmeasure.org" />
      <code value=""/>
    </valueQuantity>
    
    <effectiveDateTime value="2006-05-26"/>
    <status value="final"/>
    <subject>
      <reference value="Patient/smart-1137192"/>
    </subject>
    <referenceRange>
      <meaning>
        <coding>
         <system value="http://hl7.org/fhir/referencerange-meaning"/>
         <code value="normal"/>
         <display value="Normal Range"/>
       </coding>
       <text value="Normal Range"/>
      </meaning>
      <low>
        <value value="0.0"/>
        <unit value="mg/dL"/>
        <code value="mg/dL"/>
        <system value="http://unitsofmeasure.org"/>
      </low>
      <high>
        <value value="100.0"/>
        <unit value="mg/dL"/>
        <code value="mg/dL"/>
        <system value="http://unitsofmeasure.org"/>
      </high>
    </referenceRange>
    
  </Observation>
  
  </resource>
  <request>
    <method value="PUT"/>
    <url value="Observation/smart-Observation-2382-lab"/>
  </request>
</entry>
<entry>
  <resource>
    
    
  <Observation>
    <meta>
        <tag>
            <system value="https://smarthealthit.org/tags"/>
            <code value="smart-8-2017"/>
        </tag>
    </meta>
  <id value="smart-Observation-2383-lab"/>
    <text>
      <status value="generated"/>
      <div xmlns="http://www.w3.org/1999/xhtml">2006-05-26: HDLc SerPl-mCnc = 27 mg/dL</div>
    </text>
    <category>
      <coding>
          <system value="http://hl7.org/fhir/observation-category"/>
          <code value="laboratory"/>
          <display value="Laboratory"/>
      </coding>
      <text value="Laboratory"/>
    </category>
    <code>
      <coding>
        <system value="http://loinc.org"/>
        <code value="2085-9"/>
        <display value="HDLc SerPl-mCnc"/>
      </coding>
      <text value="HDLc SerPl-mCnc"/>
    </code>
    <valueQuantity>
      <value value="27.0"/>
      <unit value="mg/dL"/>
      <system value="http://unitsofmeasure.org" />
      <code value=""/>
    </valueQuantity>
    
    <effectiveDateTime value="2006-05-26"/>
    <status value="final"/>
    <subject>
      <reference value="Patient/smart-1137192"/>
    </subject>
    <referenceRange>
      <meaning>
        <coding>
         <system value="http://hl7.org/fhir/referencerange-meaning"/>
         <code value="normal"/>
         <display value="Normal Range"/>
       </coding>
       <text value="Normal Range"/>
      </meaning>
      <low>
        <value value="0.0"/>
        <unit value="mg/dL"/>
        <code value="mg/dL"/>
        <system value="http://unitsofmeasure.org"/>
      </low>
      <high>
        <value value="0.0"/>
        <unit value="mg/dL"/>
        <code value="mg/dL"/>
        <system value="http://unitsofmeasure.org"/>
      </high>
    </referenceRange>
    
  </Observation>
  
  </resource>
  <request>
    <method value="PUT"/>
    <url value="Observation/smart-Observation-2383-lab"/>
  </request>
</entry>
<entry>
  <resource>
    
    
  <Observation>
    <meta>
        <tag>
            <system value="https://smarthealthit.org/tags"/>
            <code value="smart-8-2017"/>
        </tag>
    </meta>
  <id value="smart-Observation-2384-lab"/>
    <text>
      <status value="generated"/>
      <div xmlns="http://www.w3.org/1999/xhtml">2006-05-26: Trigl SerPl-mCnc = 196 mg/dL</div>
    </text>
    <category>
      <coding>
          <system value="http://hl7.org/fhir/observation-category"/>
          <code value="laboratory"/>
          <display value="Laboratory"/>
      </coding>
      <text value="Laboratory"/>
    </category>
    <code>
      <coding>
        <system value="http://loinc.org"/>
        <code value="2571-8"/>
        <display value="Trigl SerPl-mCnc"/>
      </coding>
      <text value="Trigl SerPl-mCnc"/>
    </code>
    <valueQuantity>
      <value value="196.0"/>
      <unit value="mg/dL"/>
      <system value="http://unitsofmeasure.org" />
      <code value=""/>
    </valueQuantity>
    
    <effectiveDateTime value="2006-05-26"/>
    <status value="final"/>
    <subject>
      <reference value="Patient/smart-1137192"/>
    </subject>
    <referenceRange>
      <meaning>
        <coding>
         <system value="http://hl7.org/fhir/referencerange-meaning"/>
         <code value="normal"/>
         <display value="Normal Range"/>
       </coding>
       <text value="Normal Range"/>
      </meaning>
      <low>
        <value value="0.0"/>
        <unit value="mg/dL"/>
        <code value="mg/dL"/>
        <system value="http://unitsofmeasure.org"/>
      </low>
      <high>
        <value value="150.0"/>
        <unit value="mg/dL"/>
        <code value="mg/dL"/>
        <system value="http://unitsofmeasure.org"/>
      </high>
    </referenceRange>
    
  </Observation>
  
  </resource>
  <request>
    <method value="PUT"/>
    <url value="Observation/smart-Observation-2384-lab"/>
  </request>
</entry>
<entry>
  <resource>
    
    
  <Observation>
    <meta>
        <tag>
            <system value="https://smarthealthit.org/tags"/>
            <code value="smart-8-2017"/>
        </tag>
    </meta>
  <id value="smart-Observation-2385-lab"/>
    <text>
      <status value="generated"/>
      <div xmlns="http://www.w3.org/1999/xhtml">2006-05-26: Cholest SerPl-mCnc = 122 mg/dL</div>
    </text>
    <category>
      <coding>
          <system value="http://hl7.org/fhir/observation-category"/>
          <code value="laboratory"/>
          <display value="Laboratory"/>
      </coding>
      <text value="Laboratory"/>
    </category>
    <code>
      <coding>
        <system value="http://loinc.org"/>
        <code value="2093-3"/>
        <display value="Cholest SerPl-mCnc"/>
      </coding>
      <text value="Cholest SerPl-mCnc"/>
    </code>
    <valueQuantity>
      <value value="122.0"/>
      <unit value="mg/dL"/>
      <system value="http://unitsofmeasure.org" />
      <code value=""/>
    </valueQuantity>
    
    <effectiveDateTime value="2006-05-26"/>
    <status value="final"/>
    <subject>
      <reference value="Patient/smart-1137192"/>
    </subject>
    <referenceRange>
      <meaning>
        <coding>
         <system value="http://hl7.org/fhir/referencerange-meaning"/>
         <code value="normal"/>
         <display value="Normal Range"/>
       </coding>
       <text value="Normal Range"/>
      </meaning>
      <low>
        <value value="0.0"/>
        <unit value="mg/dL"/>
        <code value="mg/dL"/>
        <system value="http://unitsofmeasure.org"/>
      </low>
      <high>
        <value value="200.0"/>
        <unit value="mg/dL"/>
        <code value="mg/dL"/>
        <system value="http://unitsofmeasure.org"/>
      </high>
    </referenceRange>
    
  </Observation>
  
  </resource>
  <request>
    <method value="PUT"/>
    <url value="Observation/smart-Observation-2385-lab"/>
  </request>
</entry>
<entry>
  <resource>
    
    
  <Observation>
    <meta>
        <tag>
            <system value="https://smarthealthit.org/tags"/>
            <code value="smart-8-2017"/>
        </tag>
    </meta>
  <id value="smart-Observation-2386-lab"/>
    <text>
      <status value="generated"/>
      <div xmlns="http://www.w3.org/1999/xhtml">2007-06-01: HDLc SerPl-mCnc = 29 mg/dL</div>
    </text>
    <category>
      <coding>
          <system value="http://hl7.org/fhir/observation-category"/>
          <code value="laboratory"/>
          <display value="Laboratory"/>
      </coding>
      <text value="Laboratory"/>
    </category>
    <code>
      <coding>
        <system value="http://loinc.org"/>
        <code value="2085-9"/>
        <display value="HDLc SerPl-mCnc"/>
      </coding>
      <text value="HDLc SerPl-mCnc"/>
    </code>
    <valueQuantity>
      <value value="29.0"/>
      <unit value="mg/dL"/>
      <system value="http://unitsofmeasure.org" />
      <code value=""/>
    </valueQuantity>
    
    <effectiveDateTime value="2007-06-01"/>
    <status value="final"/>
    <subject>
      <reference value="Patient/smart-1137192"/>
    </subject>
    <referenceRange>
      <meaning>
        <coding>
         <system value="http://hl7.org/fhir/referencerange-meaning"/>
         <code value="normal"/>
         <display value="Normal Range"/>
       </coding>
       <text value="Normal Range"/>
      </meaning>
      <low>
        <value value="0.0"/>
        <unit value="mg/dL"/>
        <code value="mg/dL"/>
        <system value="http://unitsofmeasure.org"/>
      </low>
      <high>
        <value value="0.0"/>
        <unit value="mg/dL"/>
        <code value="mg/dL"/>
        <system value="http://unitsofmeasure.org"/>
      </high>
    </referenceRange>
    
  </Observation>
  
  </resource>
  <request>
    <method value="PUT"/>
    <url value="Observation/smart-Observation-2386-lab"/>
  </request>
</entry>
<entry>
  <resource>
    
    
  <Observation>
    <meta>
        <tag>
            <system value="https://smarthealthit.org/tags"/>
            <code value="smart-8-2017"/>
        </tag>
    </meta>
  <id value="smart-Observation-2387-lab"/>
    <text>
      <status value="generated"/>
      <div xmlns="http://www.w3.org/1999/xhtml">2007-06-01: Trigl SerPl-mCnc = 115 mg/dL</div>
    </text>
    <category>
      <coding>
          <system value="http://hl7.org/fhir/observation-category"/>
          <code value="laboratory"/>
          <display value="Laboratory"/>
      </coding>
      <text value="Laboratory"/>
    </category>
    <code>
      <coding>
        <system value="http://loinc.org"/>
        <code value="2571-8"/>
        <display value="Trigl SerPl-mCnc"/>
      </coding>
      <text value="Trigl SerPl-mCnc"/>
    </code>
    <valueQuantity>
      <value value="115.0"/>
      <unit value="mg/dL"/>
      <system value="http://unitsofmeasure.org" />
      <code value=""/>
    </valueQuantity>
    
    <effectiveDateTime value="2007-06-01"/>
    <status value="final"/>
    <subject>
      <reference value="Patient/smart-1137192"/>
    </subject>
    <referenceRange>
      <meaning>
        <coding>
         <system value="http://hl7.org/fhir/referencerange-meaning"/>
         <code value="normal"/>
         <display value="Normal Range"/>
       </coding>
       <text value="Normal Range"/>
      </meaning>
      <low>
        <value value="0.0"/>
        <unit value="mg/dL"/>
        <code value="mg/dL"/>
        <system value="http://unitsofmeasure.org"/>
      </low>
      <high>
        <value value="150.0"/>
        <unit value="mg/dL"/>
        <code value="mg/dL"/>
        <system value="http://unitsofmeasure.org"/>
      </high>
    </referenceRange>
    
  </Observation>
  
  </resource>
  <request>
    <method value="PUT"/>
    <url value="Observation/smart-Observation-2387-lab"/>
  </request>
</entry>
<entry>
  <resource>
    
    
  <Observation>
    <meta>
        <tag>
            <system value="https://smarthealthit.org/tags"/>
            <code value="smart-8-2017"/>
        </tag>
    </meta>
  <id value="smart-Observation-2388-lab"/>
    <text>
      <status value="generated"/>
      <div xmlns="http://www.w3.org/1999/xhtml">2007-06-01: ALT SerPl-cCnc = 38 U/L</div>
    </text>
    <category>
      <coding>
          <system value="http://hl7.org/fhir/observation-category"/>
          <code value="laboratory"/>
          <display value="Laboratory"/>
      </coding>
      <text value="Laboratory"/>
    </category>
    <code>
      <coding>
        <system value="http://loinc.org"/>
        <code value="1742-6"/>
        <display value="ALT SerPl-cCnc"/>
      </coding>
      <text value="ALT SerPl-cCnc"/>
    </code>
    <valueQuantity>
      <value value="38.0"/>
      <unit value="U/L"/>
      <system value="http://unitsofmeasure.org" />
      <code value=""/>
    </valueQuantity>
    
    <effectiveDateTime value="2007-06-01"/>
    <status value="final"/>
    <subject>
      <reference value="Patient/smart-1137192"/>
    </subject>
    <referenceRange>
      <meaning>
        <coding>
         <system value="http://hl7.org/fhir/referencerange-meaning"/>
         <code value="normal"/>
         <display value="Normal Range"/>
       </coding>
       <text value="Normal Range"/>
      </meaning>
      <low>
        <value value="0.0"/>
        <unit value="U/L"/>
        <code value="U/L"/>
        <system value="http://unitsofmeasure.org"/>
      </low>
      <high>
        <value value="45.0"/>
        <unit value="U/L"/>
        <code value="U/L"/>
        <system value="http://unitsofmeasure.org"/>
      </high>
    </referenceRange>
    
  </Observation>
  
  </resource>
  <request>
    <method value="PUT"/>
    <url value="Observation/smart-Observation-2388-lab"/>
  </request>
</entry>
<entry>
  <resource>
    
    
  <Observation>
    <meta>
        <tag>
            <system value="https://smarthealthit.org/tags"/>
            <code value="smart-8-2017"/>
        </tag>
    </meta>
  <id value="smart-Observation-2389-lab"/>
    <text>
      <status value="generated"/>
      <div xmlns="http://www.w3.org/1999/xhtml">2007-06-01: AST SerPl-cCnc = 30 U/L</div>
    </text>
    <category>
      <coding>
          <system value="http://hl7.org/fhir/observation-category"/>
          <code value="laboratory"/>
          <display value="Laboratory"/>
      </coding>
      <text value="Laboratory"/>
    </category>
    <code>
      <coding>
        <system value="http://loinc.org"/>
        <code value="1920-8"/>
        <display value="AST SerPl-cCnc"/>
      </coding>
      <text value="AST SerPl-cCnc"/>
    </code>
    <valueQuantity>
      <value value="30.0"/>
      <unit value="U/L"/>
      <system value="http://unitsofmeasure.org" />
      <code value=""/>
    </valueQuantity>
    
    <effectiveDateTime value="2007-06-01"/>
    <status value="final"/>
    <subject>
      <reference value="Patient/smart-1137192"/>
    </subject>
    <referenceRange>
      <meaning>
        <coding>
         <system value="http://hl7.org/fhir/referencerange-meaning"/>
         <code value="normal"/>
         <display value="Normal Range"/>
       </coding>
       <text value="Normal Range"/>
      </meaning>
      <low>
        <value value="15.0"/>
        <unit value="U/L"/>
        <code value="U/L"/>
        <system value="http://unitsofmeasure.org"/>
      </low>
      <high>
        <value value="41.0"/>
        <unit value="U/L"/>
        <code value="U/L"/>
        <system value="http://unitsofmeasure.org"/>
      </high>
    </referenceRange>
    
  </Observation>
  
  </resource>
  <request>
    <method value="PUT"/>
    <url value="Observation/smart-Observation-2389-lab"/>
  </request>
</entry>
<entry>
  <resource>
    
    
  <Observation>
    <meta>
        <tag>
            <system value="https://smarthealthit.org/tags"/>
            <code value="smart-8-2017"/>
        </tag>
    </meta>
  <id value="smart-Observation-2390-lab"/>
    <text>
      <status value="generated"/>
      <div xmlns="http://www.w3.org/1999/xhtml">2007-06-01: LDLc SerPl Calc-mCnc = 71 mg/dL</div>
    </text>
    <category>
      <coding>
          <system value="http://hl7.org/fhir/observation-category"/>
          <code value="laboratory"/>
          <display value="Laboratory"/>
      </coding>
      <text value="Laboratory"/>
    </category>
    <code>
      <coding>
        <system value="http://loinc.org"/>
        <code value="13457-7"/>
        <display value="LDLc SerPl Calc-mCnc"/>
      </coding>
      <text value="LDLc SerPl Calc-mCnc"/>
    </code>
    <valueQuantity>
      <value value="71.0"/>
      <unit value="mg/dL"/>
      <system value="http://unitsofmeasure.org" />
      <code value=""/>
    </valueQuantity>
    
    <effectiveDateTime value="2007-06-01"/>
    <status value="final"/>
    <subject>
      <reference value="Patient/smart-1137192"/>
    </subject>
    <referenceRange>
      <meaning>
        <coding>
         <system value="http://hl7.org/fhir/referencerange-meaning"/>
         <code value="normal"/>
         <display value="Normal Range"/>
       </coding>
       <text value="Normal Range"/>
      </meaning>
      <low>
        <value value="0.0"/>
        <unit value="mg/dL"/>
        <code value="mg/dL"/>
        <system value="http://unitsofmeasure.org"/>
      </low>
      <high>
        <value value="100.0"/>
        <unit value="mg/dL"/>
        <code value="mg/dL"/>
        <system value="http://unitsofmeasure.org"/>
      </high>
    </referenceRange>
    
  </Observation>
  
  </resource>
  <request>
    <method value="PUT"/>
    <url value="Observation/smart-Observation-2390-lab"/>
  </request>
</entry>
<entry>
  <resource>
    
    
  <Observation>
    <meta>
        <tag>
            <system value="https://smarthealthit.org/tags"/>
            <code value="smart-8-2017"/>
        </tag>
    </meta>
  <id value="smart-Observation-2391-lab"/>
    <text>
      <status value="generated"/>
      <div xmlns="http://www.w3.org/1999/xhtml">2007-06-01: Cholest SerPl-mCnc = 123 mg/dL</div>
    </text>
    <category>
      <coding>
          <system value="http://hl7.org/fhir/observation-category"/>
          <code value="laboratory"/>
          <display value="Laboratory"/>
      </coding>
      <text value="Laboratory"/>
    </category>
    <code>
      <coding>
        <system value="http://loinc.org"/>
        <code value="2093-3"/>
        <display value="Cholest SerPl-mCnc"/>
      </coding>
      <text value="Cholest SerPl-mCnc"/>
    </code>
    <valueQuantity>
      <value value="123.0"/>
      <unit value="mg/dL"/>
      <system value="http://unitsofmeasure.org" />
      <code value=""/>
    </valueQuantity>
    
    <effectiveDateTime value="2007-06-01"/>
    <status value="final"/>
    <subject>
      <reference value="Patient/smart-1137192"/>
    </subject>
    <referenceRange>
      <meaning>
        <coding>
         <system value="http://hl7.org/fhir/referencerange-meaning"/>
         <code value="normal"/>
         <display value="Normal Range"/>
       </coding>
       <text value="Normal Range"/>
      </meaning>
      <low>
        <value value="0.0"/>
        <unit value="mg/dL"/>
        <code value="mg/dL"/>
        <system value="http://unitsofmeasure.org"/>
      </low>
      <high>
        <value value="200.0"/>
        <unit value="mg/dL"/>
        <code value="mg/dL"/>
        <system value="http://unitsofmeasure.org"/>
      </high>
    </referenceRange>
    
  </Observation>
  
  </resource>
  <request>
    <method value="PUT"/>
    <url value="Observation/smart-Observation-2391-lab"/>
  </request>
</entry>
<entry>
  <resource>
    
    
  <Observation>
    <meta>
        <tag>
            <system value="https://smarthealthit.org/tags"/>
            <code value="smart-8-2017"/>
        </tag>
    </meta>
  <id value="smart-Observation-2392-lab"/>
    <text>
      <status value="generated"/>
      <div xmlns="http://www.w3.org/1999/xhtml">2008-05-30: Cholest SerPl-mCnc = 159 mg/dL</div>
    </text>
    <category>
      <coding>
          <system value="http://hl7.org/fhir/observation-category"/>
          <code value="laboratory"/>
          <display value="Laboratory"/>
      </coding>
      <text value="Laboratory"/>
    </category>
    <code>
      <coding>
        <system value="http://loinc.org"/>
        <code value="2093-3"/>
        <display value="Cholest SerPl-mCnc"/>
      </coding>
      <text value="Cholest SerPl-mCnc"/>
    </code>
    <valueQuantity>
      <value value="159.0"/>
      <unit value="mg/dL"/>
      <system value="http://unitsofmeasure.org" />
      <code value=""/>
    </valueQuantity>
    
    <effectiveDateTime value="2008-05-30"/>
    <status value="final"/>
    <subject>
      <reference value="Patient/smart-1137192"/>
    </subject>
    <referenceRange>
      <meaning>
        <coding>
         <system value="http://hl7.org/fhir/referencerange-meaning"/>
         <code value="normal"/>
         <display value="Normal Range"/>
       </coding>
       <text value="Normal Range"/>
      </meaning>
      <low>
        <value value="0.0"/>
        <unit value="mg/dL"/>
        <code value="mg/dL"/>
        <system value="http://unitsofmeasure.org"/>
      </low>
      <high>
        <value value="200.0"/>
        <unit value="mg/dL"/>
        <code value="mg/dL"/>
        <system value="http://unitsofmeasure.org"/>
      </high>
    </referenceRange>
    
  </Observation>
  
  </resource>
  <request>
    <method value="PUT"/>
    <url value="Observation/smart-Observation-2392-lab"/>
  </request>
</entry>
<entry>
  <resource>
    
    
  <Observation>
    <meta>
        <tag>
            <system value="https://smarthealthit.org/tags"/>
            <code value="smart-8-2017"/>
        </tag>
    </meta>
  <id value="smart-Observation-2393-lab"/>
    <text>
      <status value="generated"/>
      <div xmlns="http://www.w3.org/1999/xhtml">2008-05-30: AST SerPl-cCnc = 23 U/L</div>
    </text>
    <category>
      <coding>
          <system value="http://hl7.org/fhir/observation-category"/>
          <code value="laboratory"/>
          <display value="Laboratory"/>
      </coding>
      <text value="Laboratory"/>
    </category>
    <code>
      <coding>
        <system value="http://loinc.org"/>
        <code value="1920-8"/>
        <display value="AST SerPl-cCnc"/>
      </coding>
      <text value="AST SerPl-cCnc"/>
    </code>
    <valueQuantity>
      <value value="23.0"/>
      <unit value="U/L"/>
      <system value="http://unitsofmeasure.org" />
      <code value=""/>
    </valueQuantity>
    
    <effectiveDateTime value="2008-05-30"/>
    <status value="final"/>
    <subject>
      <reference value="Patient/smart-1137192"/>
    </subject>
    <referenceRange>
      <meaning>
        <coding>
         <system value="http://hl7.org/fhir/referencerange-meaning"/>
         <code value="normal"/>
         <display value="Normal Range"/>
       </coding>
       <text value="Normal Range"/>
      </meaning>
      <low>
        <value value="15.0"/>
        <unit value="U/L"/>
        <code value="U/L"/>
        <system value="http://unitsofmeasure.org"/>
      </low>
      <high>
        <value value="41.0"/>
        <unit value="U/L"/>
        <code value="U/L"/>
        <system value="http://unitsofmeasure.org"/>
      </high>
    </referenceRange>
    
  </Observation>
  
  </resource>
  <request>
    <method value="PUT"/>
    <url value="Observation/smart-Observation-2393-lab"/>
  </request>
</entry>
<entry>
  <resource>
    
    
  <Observation>
    <meta>
        <tag>
            <system value="https://smarthealthit.org/tags"/>
            <code value="smart-8-2017"/>
        </tag>
    </meta>
  <id value="smart-Observation-2394-lab"/>
    <text>
      <status value="generated"/>
      <div xmlns="http://www.w3.org/1999/xhtml">2008-05-30: HDLc SerPl-mCnc = 41 mg/dL</div>
    </text>
    <category>
      <coding>
          <system value="http://hl7.org/fhir/observation-category"/>
          <code value="laboratory"/>
          <display value="Laboratory"/>
      </coding>
      <text value="Laboratory"/>
    </category>
    <code>
      <coding>
        <system value="http://loinc.org"/>
        <code value="2085-9"/>
        <display value="HDLc SerPl-mCnc"/>
      </coding>
      <text value="HDLc SerPl-mCnc"/>
    </code>
    <valueQuantity>
      <value value="41.0"/>
      <unit value="mg/dL"/>
      <system value="http://unitsofmeasure.org" />
      <code value=""/>
    </valueQuantity>
    
    <effectiveDateTime value="2008-05-30"/>
    <status value="final"/>
    <subject>
      <reference value="Patient/smart-1137192"/>
    </subject>
    <referenceRange>
      <meaning>
        <coding>
         <system value="http://hl7.org/fhir/referencerange-meaning"/>
         <code value="normal"/>
         <display value="Normal Range"/>
       </coding>
       <text value="Normal Range"/>
      </meaning>
      <low>
        <value value="0.0"/>
        <unit value="mg/dL"/>
        <code value="mg/dL"/>
        <system value="http://unitsofmeasure.org"/>
      </low>
      <high>
        <value value="0.0"/>
        <unit value="mg/dL"/>
        <code value="mg/dL"/>
        <system value="http://unitsofmeasure.org"/>
      </high>
    </referenceRange>
    
  </Observation>
  
  </resource>
  <request>
    <method value="PUT"/>
    <url value="Observation/smart-Observation-2394-lab"/>
  </request>
</entry>
<entry>
  <resource>
    
    
  <Observation>
    <meta>
        <tag>
            <system value="https://smarthealthit.org/tags"/>
            <code value="smart-8-2017"/>
        </tag>
    </meta>
  <id value="smart-Observation-2395-lab"/>
    <text>
      <status value="generated"/>
      <div xmlns="http://www.w3.org/1999/xhtml">2008-05-30: LDLc SerPl Calc-mCnc = 93 mg/dL</div>
    </text>
    <category>
      <coding>
          <system value="http://hl7.org/fhir/observation-category"/>
          <code value="laboratory"/>
          <display value="Laboratory"/>
      </coding>
      <text value="Laboratory"/>
    </category>
    <code>
      <coding>
        <system value="http://loinc.org"/>
        <code value="13457-7"/>
        <display value="LDLc SerPl Calc-mCnc"/>
      </coding>
      <text value="LDLc SerPl Calc-mCnc"/>
    </code>
    <valueQuantity>
      <value value="93.0"/>
      <unit value="mg/dL"/>
      <system value="http://unitsofmeasure.org" />
      <code value=""/>
    </valueQuantity>
    
    <effectiveDateTime value="2008-05-30"/>
    <status value="final"/>
    <subject>
      <reference value="Patient/smart-1137192"/>
    </subject>
    <referenceRange>
      <meaning>
        <coding>
         <system value="http://hl7.org/fhir/referencerange-meaning"/>
         <code value="normal"/>
         <display value="Normal Range"/>
       </coding>
       <text value="Normal Range"/>
      </meaning>
      <low>
        <value value="0.0"/>
        <unit value="mg/dL"/>
        <code value="mg/dL"/>
        <system value="http://unitsofmeasure.org"/>
      </low>
      <high>
        <value value="100.0"/>
        <unit value="mg/dL"/>
        <code value="mg/dL"/>
        <system value="http://unitsofmeasure.org"/>
      </high>
    </referenceRange>
    
  </Observation>
  
  </resource>
  <request>
    <method value="PUT"/>
    <url value="Observation/smart-Observation-2395-lab"/>
  </request>
</entry>
<entry>
  <resource>
    
    
  <Observation>
    <meta>
        <tag>
            <system value="https://smarthealthit.org/tags"/>
            <code value="smart-8-2017"/>
        </tag>
    </meta>
  <id value="smart-Observation-2396-lab"/>
    <text>
      <status value="generated"/>
      <div xmlns="http://www.w3.org/1999/xhtml">2008-05-30: Trigl SerPl-mCnc = 126 mg/dL</div>
    </text>
    <category>
      <coding>
          <system value="http://hl7.org/fhir/observation-category"/>
          <code value="laboratory"/>
          <display value="Laboratory"/>
      </coding>
      <text value="Laboratory"/>
    </category>
    <code>
      <coding>
        <system value="http://loinc.org"/>
        <code value="2571-8"/>
        <display value="Trigl SerPl-mCnc"/>
      </coding>
      <text value="Trigl SerPl-mCnc"/>
    </code>
    <valueQuantity>
      <value value="126.0"/>
      <unit value="mg/dL"/>
      <system value="http://unitsofmeasure.org" />
      <code value=""/>
    </valueQuantity>
    
    <effectiveDateTime value="2008-05-30"/>
    <status value="final"/>
    <subject>
      <reference value="Patient/smart-1137192"/>
    </subject>
    <referenceRange>
      <meaning>
        <coding>
         <system value="http://hl7.org/fhir/referencerange-meaning"/>
         <code value="normal"/>
         <display value="Normal Range"/>
       </coding>
       <text value="Normal Range"/>
      </meaning>
      <low>
        <value value="0.0"/>
        <unit value="mg/dL"/>
        <code value="mg/dL"/>
        <system value="http://unitsofmeasure.org"/>
      </low>
      <high>
        <value value="150.0"/>
        <unit value="mg/dL"/>
        <code value="mg/dL"/>
        <system value="http://unitsofmeasure.org"/>
      </high>
    </referenceRange>
    
  </Observation>
  
  </resource>
  <request>
    <method value="PUT"/>
    <url value="Observation/smart-Observation-2396-lab"/>
  </request>
</entry>
<entry>
  <resource>
    
    
  <Observation>
    <meta>
        <tag>
            <system value="https://smarthealthit.org/tags"/>
            <code value="smart-8-2017"/>
        </tag>
    </meta>
  <id value="smart-Observation-2397-lab"/>
    <text>
      <status value="generated"/>
      <div xmlns="http://www.w3.org/1999/xhtml">2008-05-30: ALT SerPl-cCnc = 27 U/L</div>
    </text>
    <category>
      <coding>
          <system value="http://hl7.org/fhir/observation-category"/>
          <code value="laboratory"/>
          <display value="Laboratory"/>
      </coding>
      <text value="Laboratory"/>
    </category>
    <code>
      <coding>
        <system value="http://loinc.org"/>
        <code value="1742-6"/>
        <display value="ALT SerPl-cCnc"/>
      </coding>
      <text value="ALT SerPl-cCnc"/>
    </code>
    <valueQuantity>
      <value value="27.0"/>
      <unit value="U/L"/>
      <system value="http://unitsofmeasure.org" />
      <code value=""/>
    </valueQuantity>
    
    <effectiveDateTime value="2008-05-30"/>
    <status value="final"/>
    <subject>
      <reference value="Patient/smart-1137192"/>
    </subject>
    <referenceRange>
      <meaning>
        <coding>
         <system value="http://hl7.org/fhir/referencerange-meaning"/>
         <code value="normal"/>
         <display value="Normal Range"/>
       </coding>
       <text value="Normal Range"/>
      </meaning>
      <low>
        <value value="0.0"/>
        <unit value="U/L"/>
        <code value="U/L"/>
        <system value="http://unitsofmeasure.org"/>
      </low>
      <high>
        <value value="45.0"/>
        <unit value="U/L"/>
        <code value="U/L"/>
        <system value="http://unitsofmeasure.org"/>
      </high>
    </referenceRange>
    
  </Observation>
  
  </resource>
  <request>
    <method value="PUT"/>
    <url value="Observation/smart-Observation-2397-lab"/>
  </request>
</entry>
<entry>
  <resource>
    
    
  <Observation>
    <meta>
        <tag>
            <system value="https://smarthealthit.org/tags"/>
            <code value="smart-8-2017"/>
        </tag>
    </meta>
  <id value="smart-Observation-2398-lab"/>
    <text>
      <status value="generated"/>
      <div xmlns="http://www.w3.org/1999/xhtml">2009-05-29: HDLc SerPl-mCnc = 41 mg/dL</div>
    </text>
    <category>
      <coding>
          <system value="http://hl7.org/fhir/observation-category"/>
          <code value="laboratory"/>
          <display value="Laboratory"/>
      </coding>
      <text value="Laboratory"/>
    </category>
    <code>
      <coding>
        <system value="http://loinc.org"/>
        <code value="2085-9"/>
        <display value="HDLc SerPl-mCnc"/>
      </coding>
      <text value="HDLc SerPl-mCnc"/>
    </code>
    <valueQuantity>
      <value value="41.0"/>
      <unit value="mg/dL"/>
      <system value="http://unitsofmeasure.org" />
      <code value=""/>
    </valueQuantity>
    
    <effectiveDateTime value="2009-05-29"/>
    <status value="final"/>
    <subject>
      <reference value="Patient/smart-1137192"/>
    </subject>
    <referenceRange>
      <meaning>
        <coding>
         <system value="http://hl7.org/fhir/referencerange-meaning"/>
         <code value="normal"/>
         <display value="Normal Range"/>
       </coding>
       <text value="Normal Range"/>
      </meaning>
      <low>
        <value value="0.0"/>
        <unit value="mg/dL"/>
        <code value="mg/dL"/>
        <system value="http://unitsofmeasure.org"/>
      </low>
      <high>
        <value value="0.0"/>
        <unit value="mg/dL"/>
        <code value="mg/dL"/>
        <system value="http://unitsofmeasure.org"/>
      </high>
    </referenceRange>
    
  </Observation>
  
  </resource>
  <request>
    <method value="PUT"/>
    <url value="Observation/smart-Observation-2398-lab"/>
  </request>
</entry>
<entry>
  <resource>
    
    
  <Observation>
    <meta>
        <tag>
            <system value="https://smarthealthit.org/tags"/>
            <code value="smart-8-2017"/>
        </tag>
    </meta>
  <id value="smart-Observation-2399-lab"/>
    <text>
      <status value="generated"/>
      <div xmlns="http://www.w3.org/1999/xhtml">2009-05-29: Trigl SerPl-mCnc = 116 mg/dL</div>
    </text>
    <category>
      <coding>
          <system value="http://hl7.org/fhir/observation-category"/>
          <code value="laboratory"/>
          <display value="Laboratory"/>
      </coding>
      <text value="Laboratory"/>
    </category>
    <code>
      <coding>
        <system value="http://loinc.org"/>
        <code value="2571-8"/>
        <display value="Trigl SerPl-mCnc"/>
      </coding>
      <text value="Trigl SerPl-mCnc"/>
    </code>
    <valueQuantity>
      <value value="116.0"/>
      <unit value="mg/dL"/>
      <system value="http://unitsofmeasure.org" />
      <code value=""/>
    </valueQuantity>
    
    <effectiveDateTime value="2009-05-29"/>
    <status value="final"/>
    <subject>
      <reference value="Patient/smart-1137192"/>
    </subject>
    <referenceRange>
      <meaning>
        <coding>
         <system value="http://hl7.org/fhir/referencerange-meaning"/>
         <code value="normal"/>
         <display value="Normal Range"/>
       </coding>
       <text value="Normal Range"/>
      </meaning>
      <low>
        <value value="0.0"/>
        <unit value="mg/dL"/>
        <code value="mg/dL"/>
        <system value="http://unitsofmeasure.org"/>
      </low>
      <high>
        <value value="150.0"/>
        <unit value="mg/dL"/>
        <code value="mg/dL"/>
        <system value="http://unitsofmeasure.org"/>
      </high>
    </referenceRange>
    
  </Observation>
  
  </resource>
  <request>
    <method value="PUT"/>
    <url value="Observation/smart-Observation-2399-lab"/>
  </request>
</entry>
<entry>
  <resource>
    
    
  <Observation>
    <meta>
        <tag>
            <system value="https://smarthealthit.org/tags"/>
            <code value="smart-8-2017"/>
        </tag>
    </meta>
  <id value="smart-Observation-2400-lab"/>
    <text>
      <status value="generated"/>
      <div xmlns="http://www.w3.org/1999/xhtml">2009-05-29: ALT SerPl-cCnc = 27 U/L</div>
    </text>
    <category>
      <coding>
          <system value="http://hl7.org/fhir/observation-category"/>
          <code value="laboratory"/>
          <display value="Laboratory"/>
      </coding>
      <text value="Laboratory"/>
    </category>
    <code>
      <coding>
        <system value="http://loinc.org"/>
        <code value="1742-6"/>
        <display value="ALT SerPl-cCnc"/>
      </coding>
      <text value="ALT SerPl-cCnc"/>
    </code>
    <valueQuantity>
      <value value="27.0"/>
      <unit value="U/L"/>
      <system value="http://unitsofmeasure.org" />
      <code value=""/>
    </valueQuantity>
    
    <effectiveDateTime value="2009-05-29"/>
    <status value="final"/>
    <subject>
      <reference value="Patient/smart-1137192"/>
    </subject>
    <referenceRange>
      <meaning>
        <coding>
         <system value="http://hl7.org/fhir/referencerange-meaning"/>
         <code value="normal"/>
         <display value="Normal Range"/>
       </coding>
       <text value="Normal Range"/>
      </meaning>
      <low>
        <value value="0.0"/>
        <unit value="U/L"/>
        <code value="U/L"/>
        <system value="http://unitsofmeasure.org"/>
      </low>
      <high>
        <value value="45.0"/>
        <unit value="U/L"/>
        <code value="U/L"/>
        <system value="http://unitsofmeasure.org"/>
      </high>
    </referenceRange>
    
  </Observation>
  
  </resource>
  <request>
    <method value="PUT"/>
    <url value="Observation/smart-Observation-2400-lab"/>
  </request>
</entry>
<entry>
  <resource>
    
    
  <Observation>
    <meta>
        <tag>
            <system value="https://smarthealthit.org/tags"/>
            <code value="smart-8-2017"/>
        </tag>
    </meta>
  <id value="smart-Observation-2401-lab"/>
    <text>
      <status value="generated"/>
      <div xmlns="http://www.w3.org/1999/xhtml">2009-05-29: Cholest SerPl-mCnc = 163 mg/dL</div>
    </text>
    <category>
      <coding>
          <system value="http://hl7.org/fhir/observation-category"/>
          <code value="laboratory"/>
          <display value="Laboratory"/>
      </coding>
      <text value="Laboratory"/>
    </category>
    <code>
      <coding>
        <system value="http://loinc.org"/>
        <code value="2093-3"/>
        <display value="Cholest SerPl-mCnc"/>
      </coding>
      <text value="Cholest SerPl-mCnc"/>
    </code>
    <valueQuantity>
      <value value="163.0"/>
      <unit value="mg/dL"/>
      <system value="http://unitsofmeasure.org" />
      <code value=""/>
    </valueQuantity>
    
    <effectiveDateTime value="2009-05-29"/>
    <status value="final"/>
    <subject>
      <reference value="Patient/smart-1137192"/>
    </subject>
    <referenceRange>
      <meaning>
        <coding>
         <system value="http://hl7.org/fhir/referencerange-meaning"/>
         <code value="normal"/>
         <display value="Normal Range"/>
       </coding>
       <text value="Normal Range"/>
      </meaning>
      <low>
        <value value="0.0"/>
        <unit value="mg/dL"/>
        <code value="mg/dL"/>
        <system value="http://unitsofmeasure.org"/>
      </low>
      <high>
        <value value="200.0"/>
        <unit value="mg/dL"/>
        <code value="mg/dL"/>
        <system value="http://unitsofmeasure.org"/>
      </high>
    </referenceRange>
    
  </Observation>
  
  </resource>
  <request>
    <method value="PUT"/>
    <url value="Observation/smart-Observation-2401-lab"/>
  </request>
</entry>
<entry>
  <resource>
    
    
  <Observation>
    <meta>
        <tag>
            <system value="https://smarthealthit.org/tags"/>
            <code value="smart-8-2017"/>
        </tag>
    </meta>
  <id value="smart-Observation-2402-lab"/>
    <text>
      <status value="generated"/>
      <div xmlns="http://www.w3.org/1999/xhtml">2009-05-29: LDLc SerPl Calc-mCnc = 99 mg/dL</div>
    </text>
    <category>
      <coding>
          <system value="http://hl7.org/fhir/observation-category"/>
          <code value="laboratory"/>
          <display value="Laboratory"/>
      </coding>
      <text value="Laboratory"/>
    </category>
    <code>
      <coding>
        <system value="http://loinc.org"/>
        <code value="13457-7"/>
        <display value="LDLc SerPl Calc-mCnc"/>
      </coding>
      <text value="LDLc SerPl Calc-mCnc"/>
    </code>
    <valueQuantity>
      <value value="99.0"/>
      <unit value="mg/dL"/>
      <system value="http://unitsofmeasure.org" />
      <code value=""/>
    </valueQuantity>
    
    <effectiveDateTime value="2009-05-29"/>
    <status value="final"/>
    <subject>
      <reference value="Patient/smart-1137192"/>
    </subject>
    <referenceRange>
      <meaning>
        <coding>
         <system value="http://hl7.org/fhir/referencerange-meaning"/>
         <code value="normal"/>
         <display value="Normal Range"/>
       </coding>
       <text value="Normal Range"/>
      </meaning>
      <low>
        <value value="0.0"/>
        <unit value="mg/dL"/>
        <code value="mg/dL"/>
        <system value="http://unitsofmeasure.org"/>
      </low>
      <high>
        <value value="100.0"/>
        <unit value="mg/dL"/>
        <code value="mg/dL"/>
        <system value="http://unitsofmeasure.org"/>
      </high>
    </referenceRange>
    
  </Observation>
  
  </resource>
  <request>
    <method value="PUT"/>
    <url value="Observation/smart-Observation-2402-lab"/>
  </request>
</entry>
<entry>
  <resource>
    
    
  <Observation>
    <meta>
        <tag>
            <system value="https://smarthealthit.org/tags"/>
            <code value="smart-8-2017"/>
        </tag>
    </meta>
  <id value="smart-Observation-2403-lab"/>
    <text>
      <status value="generated"/>
      <div xmlns="http://www.w3.org/1999/xhtml">2009-05-29: AST SerPl-cCnc = 24 U/L</div>
    </text>
    <category>
      <coding>
          <system value="http://hl7.org/fhir/observation-category"/>
          <code value="laboratory"/>
          <display value="Laboratory"/>
      </coding>
      <text value="Laboratory"/>
    </category>
    <code>
      <coding>
        <system value="http://loinc.org"/>
        <code value="1920-8"/>
        <display value="AST SerPl-cCnc"/>
      </coding>
      <text value="AST SerPl-cCnc"/>
    </code>
    <valueQuantity>
      <value value="24.0"/>
      <unit value="U/L"/>
      <system value="http://unitsofmeasure.org" />
      <code value=""/>
    </valueQuantity>
    
    <effectiveDateTime value="2009-05-29"/>
    <status value="final"/>
    <subject>
      <reference value="Patient/smart-1137192"/>
    </subject>
    <referenceRange>
      <meaning>
        <coding>
         <system value="http://hl7.org/fhir/referencerange-meaning"/>
         <code value="normal"/>
         <display value="Normal Range"/>
       </coding>
       <text value="Normal Range"/>
      </meaning>
      <low>
        <value value="15.0"/>
        <unit value="U/L"/>
        <code value="U/L"/>
        <system value="http://unitsofmeasure.org"/>
      </low>
      <high>
        <value value="41.0"/>
        <unit value="U/L"/>
        <code value="U/L"/>
        <system value="http://unitsofmeasure.org"/>
      </high>
    </referenceRange>
    
  </Observation>
  
  </resource>
  <request>
    <method value="PUT"/>
    <url value="Observation/smart-Observation-2403-lab"/>
  </request>
</entry>
<entry>
  <resource>
    
    
  <Observation>
    <meta>
        <tag>
            <system value="https://smarthealthit.org/tags"/>
            <code value="smart-8-2017"/>
        </tag>
    </meta>
  <id value="smart-Observation-2404-lab"/>
    <text>
      <status value="generated"/>
      <div xmlns="http://www.w3.org/1999/xhtml">2008-05-30: CRP SerPl HS-mCnc = 3.8 mg/L</div>
    </text>
    <category>
      <coding>
          <system value="http://hl7.org/fhir/observation-category"/>
          <code value="laboratory"/>
          <display value="Laboratory"/>
      </coding>
      <text value="Laboratory"/>
    </category>
    <code>
      <coding>
        <system value="http://loinc.org"/>
        <code value="30522-7"/>
        <display value="CRP SerPl HS-mCnc"/>
      </coding>
      <text value="CRP SerPl HS-mCnc"/>
    </code>
    <valueQuantity>
      <value value="3.8"/>
      <unit value="mg/L"/>
      <system value="http://unitsofmeasure.org" />
      <code value=""/>
    </valueQuantity>
    
    <effectiveDateTime value="2008-05-30"/>
    <status value="final"/>
    <subject>
      <reference value="Patient/smart-1137192"/>
    </subject>
    <referenceRange>
      <meaning>
        <coding>
         <system value="http://hl7.org/fhir/referencerange-meaning"/>
         <code value="normal"/>
         <display value="Normal Range"/>
       </coding>
       <text value="Normal Range"/>
      </meaning>
      <low>
        <value value="0.0"/>
        <unit value="mg/L"/>
        <code value="mg/L"/>
        <system value="http://unitsofmeasure.org"/>
      </low>
      <high>
        <value value="3.0"/>
        <unit value="mg/L"/>
        <code value="mg/L"/>
        <system value="http://unitsofmeasure.org"/>
      </high>
    </referenceRange>
    
  </Observation>
  
  </resource>
  <request>
    <method value="PUT"/>
    <url value="Observation/smart-Observation-2404-lab"/>
  </request>
</entry>
<entry>
  <resource>
    
    
<MedicationOrder>
  <meta>
      <tag>
          <system value="https://smarthealthit.org/tags"/>
          <code value="smart-8-2017"/>
      </tag>
  </meta>
  <id value="smart-MedicationOrder-121"/>
  <text>
    <status value="generated"/>
    <div xmlns="http://www.w3.org/1999/xhtml">
      benazepril 10 MG Oral Tablet (rxnorm: 308607)
    </div>
  </text>

  <status value="active" />
  <patient>
    <reference value="Patient/smart-1137192"/>
  </patient>

  <medicationCodeableConcept>
    <coding>
        <system value="http://www.nlm.nih.gov/research/umls/rxnorm"/>
        <code value="308607"/>
        <display value="benazepril 10 MG Oral Tablet"/>
    </coding>
    <text value="benazepril 10 MG Oral Tablet"/>
  </medicationCodeableConcept>

  <dosageInstruction>
    <timing>
      <repeat>
        <boundsPeriod>
          <start value="2008-08-20"/>
        </boundsPeriod>
        <frequency value="1"/>
        <period value="1"/>
        <periodUnits value="d"/>
      </repeat>
      
    </timing>
    <doseQuantity>
      <value value="1"/>
      <unit value="{tablet}"/>
      <system value="http://unitsofmeasure.org"/>
      <code value="{tablet}"/>
    </doseQuantity>
    
    <text value="1 daily"/>
  </dosageInstruction>
  <dispenseRequest>
     <numberOfRepeatsAllowed value="1"/>
     
     <quantity>
        <value value="90"/>
        <unit value="{tablet}"/>
        <system value="http://unitsofmeasure.org"/>
        <code value="{tablet}"/>
     </quantity>
     
     <expectedSupplyDuration>
        <value value="90"/>
        <unit value="days"/>
        <system value="http://unitsofmeasure.org"/>
        <code value="d"/>
     </expectedSupplyDuration>
     
  </dispenseRequest>
  
</MedicationOrder>

  </resource>
  <request>
    <method value="PUT"/>
    <url value="MedicationOrder/smart-MedicationOrder-121"/>
  </request>
</entry>
<entry>
  <resource>
    
    
<MedicationDispense>
  <meta>
      <tag>
          <system value="https://smarthealthit.org/tags"/>
          <code value="smart-8-2017"/>
      </tag>
  </meta>
  <id value="smart-MedicationDispense-1252"/>
  <!--  insert contents here  -->
   <text>
    <status value="generated"/>
    <div xmlns="http://www.w3.org/1999/xhtml">
      Dispensed 90 tablets = 90 day supply of benazepril 10 MG Oral Tablet
    </div>
  </text>

  <status value="completed"/>

  <patient>
    <reference value="Patient/smart-1137192"/>
  </patient>

  <authorizingPrescription>
    <reference value="MedicationOrder/smart-MedicationOrder-121"/>
  </authorizingPrescription>

  <quantity>
      <value value="90"/>
      <unit value="tablets"/>
      <system value="http://unitsofmeasure.org"/>
      <code value="{tablets}"/>
  </quantity>

  <daysSupply>
      <value value="90" />
      <unit value="days" />
      <system value="http://unitsofmeasure.org" />
      <code value="d" />
  </daysSupply>

  <medicationCodeableConcept>
    <coding>
        <system value="http://www.nlm.nih.gov/research/umls/rxnorm"/>
        <code value="308607"/>
        <display value="benazepril 10 MG Oral Tablet"/>
    </coding>
    <text value="benazepril 10 MG Oral Tablet"/>
  </medicationCodeableConcept>

  <whenHandedOver value="2009-05-04"/>

</MedicationDispense>

  </resource>
  <request>
    <method value="PUT"/>
    <url value="MedicationDispense/smart-MedicationDispense-1252"/>
  </request>
</entry>
<entry>
  <resource>
    
    
<MedicationDispense>
  <meta>
      <tag>
          <system value="https://smarthealthit.org/tags"/>
          <code value="smart-8-2017"/>
      </tag>
  </meta>
  <id value="smart-MedicationDispense-1253"/>
  <!--  insert contents here  -->
   <text>
    <status value="generated"/>
    <div xmlns="http://www.w3.org/1999/xhtml">
      Dispensed 90 tablets = 90 day supply of benazepril 10 MG Oral Tablet
    </div>
  </text>

  <status value="completed"/>

  <patient>
    <reference value="Patient/smart-1137192"/>
  </patient>

  <authorizingPrescription>
    <reference value="MedicationOrder/smart-MedicationOrder-121"/>
  </authorizingPrescription>

  <quantity>
      <value value="90"/>
      <unit value="tablets"/>
      <system value="http://unitsofmeasure.org"/>
      <code value="{tablets}"/>
  </quantity>

  <daysSupply>
      <value value="90" />
      <unit value="days" />
      <system value="http://unitsofmeasure.org" />
      <code value="d" />
  </daysSupply>

  <medicationCodeableConcept>
    <coding>
        <system value="http://www.nlm.nih.gov/research/umls/rxnorm"/>
        <code value="308607"/>
        <display value="benazepril 10 MG Oral Tablet"/>
    </coding>
    <text value="benazepril 10 MG Oral Tablet"/>
  </medicationCodeableConcept>

  <whenHandedOver value="2009-09-04"/>

</MedicationDispense>

  </resource>
  <request>
    <method value="PUT"/>
    <url value="MedicationDispense/smart-MedicationDispense-1253"/>
  </request>
</entry>
<entry>
  <resource>
    
    
<MedicationDispense>
  <meta>
      <tag>
          <system value="https://smarthealthit.org/tags"/>
          <code value="smart-8-2017"/>
      </tag>
  </meta>
  <id value="smart-MedicationDispense-1251"/>
  <!--  insert contents here  -->
   <text>
    <status value="generated"/>
    <div xmlns="http://www.w3.org/1999/xhtml">
      Dispensed 90 tablets = 90 day supply of benazepril 10 MG Oral Tablet
    </div>
  </text>

  <status value="completed"/>

  <patient>
    <reference value="Patient/smart-1137192"/>
  </patient>

  <authorizingPrescription>
    <reference value="MedicationOrder/smart-MedicationOrder-121"/>
  </authorizingPrescription>

  <quantity>
      <value value="90"/>
      <unit value="tablets"/>
      <system value="http://unitsofmeasure.org"/>
      <code value="{tablets}"/>
  </quantity>

  <daysSupply>
      <value value="90" />
      <unit value="days" />
      <system value="http://unitsofmeasure.org" />
      <code value="d" />
  </daysSupply>

  <medicationCodeableConcept>
    <coding>
        <system value="http://www.nlm.nih.gov/research/umls/rxnorm"/>
        <code value="308607"/>
        <display value="benazepril 10 MG Oral Tablet"/>
    </coding>
    <text value="benazepril 10 MG Oral Tablet"/>
  </medicationCodeableConcept>

  <whenHandedOver value="2009-02-05"/>

</MedicationDispense>

  </resource>
  <request>
    <method value="PUT"/>
    <url value="MedicationDispense/smart-MedicationDispense-1251"/>
  </request>
</entry>
<entry>
  <resource>
    
    
<MedicationDispense>
  <meta>
      <tag>
          <system value="https://smarthealthit.org/tags"/>
          <code value="smart-8-2017"/>
      </tag>
  </meta>
  <id value="smart-MedicationDispense-1249"/>
  <!--  insert contents here  -->
   <text>
    <status value="generated"/>
    <div xmlns="http://www.w3.org/1999/xhtml">
      Dispensed 90 tablets = 90 day supply of benazepril 10 MG Oral Tablet
    </div>
  </text>

  <status value="completed"/>

  <patient>
    <reference value="Patient/smart-1137192"/>
  </patient>

  <authorizingPrescription>
    <reference value="MedicationOrder/smart-MedicationOrder-121"/>
  </authorizingPrescription>

  <quantity>
      <value value="90"/>
      <unit value="tablets"/>
      <system value="http://unitsofmeasure.org"/>
      <code value="{tablets}"/>
  </quantity>

  <daysSupply>
      <value value="90" />
      <unit value="days" />
      <system value="http://unitsofmeasure.org" />
      <code value="d" />
  </daysSupply>

  <medicationCodeableConcept>
    <coding>
        <system value="http://www.nlm.nih.gov/research/umls/rxnorm"/>
        <code value="308607"/>
        <display value="benazepril 10 MG Oral Tablet"/>
    </coding>
    <text value="benazepril 10 MG Oral Tablet"/>
  </medicationCodeableConcept>

  <whenHandedOver value="2008-08-20"/>

</MedicationDispense>

  </resource>
  <request>
    <method value="PUT"/>
    <url value="MedicationDispense/smart-MedicationDispense-1249"/>
  </request>
</entry>
<entry>
  <resource>
    
    
<MedicationDispense>
  <meta>
      <tag>
          <system value="https://smarthealthit.org/tags"/>
          <code value="smart-8-2017"/>
      </tag>
  </meta>
  <id value="smart-MedicationDispense-1250"/>
  <!--  insert contents here  -->
   <text>
    <status value="generated"/>
    <div xmlns="http://www.w3.org/1999/xhtml">
      Dispensed 90 tablets = 90 day supply of benazepril 10 MG Oral Tablet
    </div>
  </text>

  <status value="completed"/>

  <patient>
    <reference value="Patient/smart-1137192"/>
  </patient>

  <authorizingPrescription>
    <reference value="MedicationOrder/smart-MedicationOrder-121"/>
  </authorizingPrescription>

  <quantity>
      <value value="90"/>
      <unit value="tablets"/>
      <system value="http://unitsofmeasure.org"/>
      <code value="{tablets}"/>
  </quantity>

  <daysSupply>
      <value value="90" />
      <unit value="days" />
      <system value="http://unitsofmeasure.org" />
      <code value="d" />
  </daysSupply>

  <medicationCodeableConcept>
    <coding>
        <system value="http://www.nlm.nih.gov/research/umls/rxnorm"/>
        <code value="308607"/>
        <display value="benazepril 10 MG Oral Tablet"/>
    </coding>
    <text value="benazepril 10 MG Oral Tablet"/>
  </medicationCodeableConcept>

  <whenHandedOver value="2008-11-12"/>

</MedicationDispense>

  </resource>
  <request>
    <method value="PUT"/>
    <url value="MedicationDispense/smart-MedicationDispense-1250"/>
  </request>
</entry>
<entry>
  <resource>
    
    
<MedicationOrder>
  <meta>
      <tag>
          <system value="https://smarthealthit.org/tags"/>
          <code value="smart-8-2017"/>
      </tag>
  </meta>
  <id value="smart-MedicationOrder-122"/>
  <text>
    <status value="generated"/>
    <div xmlns="http://www.w3.org/1999/xhtml">
      Simvastatin 20 MG Oral Tablet (rxnorm: 312961)
    </div>
  </text>

  <status value="active" />
  <patient>
    <reference value="Patient/smart-1137192"/>
  </patient>

  <medicationCodeableConcept>
    <coding>
        <system value="http://www.nlm.nih.gov/research/umls/rxnorm"/>
        <code value="312961"/>
        <display value="Simvastatin 20 MG Oral Tablet"/>
    </coding>
    <text value="Simvastatin 20 MG Oral Tablet"/>
  </medicationCodeableConcept>

  <dosageInstruction>
    <timing>
      <repeat>
        <boundsPeriod>
          <start value="2008-08-20"/>
        </boundsPeriod>
        <frequency value="1"/>
        <period value="1"/>
        <periodUnits value="d"/>
      </repeat>
      
    </timing>
    <doseQuantity>
      <value value="1"/>
      <unit value="{tablet}"/>
      <system value="http://unitsofmeasure.org"/>
      <code value="{tablet}"/>
    </doseQuantity>
    
    <text value="1 qhs"/>
  </dosageInstruction>
  <dispenseRequest>
     <numberOfRepeatsAllowed value="1"/>
     
     <quantity>
        <value value="90"/>
        <unit value="{tablet}"/>
        <system value="http://unitsofmeasure.org"/>
        <code value="{tablet}"/>
     </quantity>
     
     <expectedSupplyDuration>
        <value value="90"/>
        <unit value="days"/>
        <system value="http://unitsofmeasure.org"/>
        <code value="d"/>
     </expectedSupplyDuration>
     
  </dispenseRequest>
  
</MedicationOrder>

  </resource>
  <request>
    <method value="PUT"/>
    <url value="MedicationOrder/smart-MedicationOrder-122"/>
  </request>
</entry>
<entry>
  <resource>
    
    
<MedicationDispense>
  <meta>
      <tag>
          <system value="https://smarthealthit.org/tags"/>
          <code value="smart-8-2017"/>
      </tag>
  </meta>
  <id value="smart-MedicationDispense-1258"/>
  <!--  insert contents here  -->
   <text>
    <status value="generated"/>
    <div xmlns="http://www.w3.org/1999/xhtml">
      Dispensed 90 tablets = 90 day supply of Simvastatin 20 MG Oral Tablet
    </div>
  </text>

  <status value="completed"/>

  <patient>
    <reference value="Patient/smart-1137192"/>
  </patient>

  <authorizingPrescription>
    <reference value="MedicationOrder/smart-MedicationOrder-122"/>
  </authorizingPrescription>

  <quantity>
      <value value="90"/>
      <unit value="tablets"/>
      <system value="http://unitsofmeasure.org"/>
      <code value="{tablets}"/>
  </quantity>

  <daysSupply>
      <value value="90" />
      <unit value="days" />
      <system value="http://unitsofmeasure.org" />
      <code value="d" />
  </daysSupply>

  <medicationCodeableConcept>
    <coding>
        <system value="http://www.nlm.nih.gov/research/umls/rxnorm"/>
        <code value="312961"/>
        <display value="Simvastatin 20 MG Oral Tablet"/>
    </coding>
    <text value="Simvastatin 20 MG Oral Tablet"/>
  </medicationCodeableConcept>

  <whenHandedOver value="2009-09-04"/>

</MedicationDispense>

  </resource>
  <request>
    <method value="PUT"/>
    <url value="MedicationDispense/smart-MedicationDispense-1258"/>
  </request>
</entry>
<entry>
  <resource>
    
    
<MedicationDispense>
  <meta>
      <tag>
          <system value="https://smarthealthit.org/tags"/>
          <code value="smart-8-2017"/>
      </tag>
  </meta>
  <id value="smart-MedicationDispense-1257"/>
  <!--  insert contents here  -->
   <text>
    <status value="generated"/>
    <div xmlns="http://www.w3.org/1999/xhtml">
      Dispensed 90 tablets = 90 day supply of Simvastatin 20 MG Oral Tablet
    </div>
  </text>

  <status value="completed"/>

  <patient>
    <reference value="Patient/smart-1137192"/>
  </patient>

  <authorizingPrescription>
    <reference value="MedicationOrder/smart-MedicationOrder-122"/>
  </authorizingPrescription>

  <quantity>
      <value value="90"/>
      <unit value="tablets"/>
      <system value="http://unitsofmeasure.org"/>
      <code value="{tablets}"/>
  </quantity>

  <daysSupply>
      <value value="90" />
      <unit value="days" />
      <system value="http://unitsofmeasure.org" />
      <code value="d" />
  </daysSupply>

  <medicationCodeableConcept>
    <coding>
        <system value="http://www.nlm.nih.gov/research/umls/rxnorm"/>
        <code value="312961"/>
        <display value="Simvastatin 20 MG Oral Tablet"/>
    </coding>
    <text value="Simvastatin 20 MG Oral Tablet"/>
  </medicationCodeableConcept>

  <whenHandedOver value="2009-05-04"/>

</MedicationDispense>

  </resource>
  <request>
    <method value="PUT"/>
    <url value="MedicationDispense/smart-MedicationDispense-1257"/>
  </request>
</entry>
<entry>
  <resource>
    
    
<MedicationDispense>
  <meta>
      <tag>
          <system value="https://smarthealthit.org/tags"/>
          <code value="smart-8-2017"/>
      </tag>
  </meta>
  <id value="smart-MedicationDispense-1256"/>
  <!--  insert contents here  -->
   <text>
    <status value="generated"/>
    <div xmlns="http://www.w3.org/1999/xhtml">
      Dispensed 90 tablets = 90 day supply of Simvastatin 20 MG Oral Tablet
    </div>
  </text>

  <status value="completed"/>

  <patient>
    <reference value="Patient/smart-1137192"/>
  </patient>

  <authorizingPrescription>
    <reference value="MedicationOrder/smart-MedicationOrder-122"/>
  </authorizingPrescription>

  <quantity>
      <value value="90"/>
      <unit value="tablets"/>
      <system value="http://unitsofmeasure.org"/>
      <code value="{tablets}"/>
  </quantity>

  <daysSupply>
      <value value="90" />
      <unit value="days" />
      <system value="http://unitsofmeasure.org" />
      <code value="d" />
  </daysSupply>

  <medicationCodeableConcept>
    <coding>
        <system value="http://www.nlm.nih.gov/research/umls/rxnorm"/>
        <code value="312961"/>
        <display value="Simvastatin 20 MG Oral Tablet"/>
    </coding>
    <text value="Simvastatin 20 MG Oral Tablet"/>
  </medicationCodeableConcept>

  <whenHandedOver value="2009-02-05"/>

</MedicationDispense>

  </resource>
  <request>
    <method value="PUT"/>
    <url value="MedicationDispense/smart-MedicationDispense-1256"/>
  </request>
</entry>
<entry>
  <resource>
    
    
<MedicationDispense>
  <meta>
      <tag>
          <system value="https://smarthealthit.org/tags"/>
          <code value="smart-8-2017"/>
      </tag>
  </meta>
  <id value="smart-MedicationDispense-1254"/>
  <!--  insert contents here  -->
   <text>
    <status value="generated"/>
    <div xmlns="http://www.w3.org/1999/xhtml">
      Dispensed 90 tablets = 90 day supply of Simvastatin 20 MG Oral Tablet
    </div>
  </text>

  <status value="completed"/>

  <patient>
    <reference value="Patient/smart-1137192"/>
  </patient>

  <authorizingPrescription>
    <reference value="MedicationOrder/smart-MedicationOrder-122"/>
  </authorizingPrescription>

  <quantity>
      <value value="90"/>
      <unit value="tablets"/>
      <system value="http://unitsofmeasure.org"/>
      <code value="{tablets}"/>
  </quantity>

  <daysSupply>
      <value value="90" />
      <unit value="days" />
      <system value="http://unitsofmeasure.org" />
      <code value="d" />
  </daysSupply>

  <medicationCodeableConcept>
    <coding>
        <system value="http://www.nlm.nih.gov/research/umls/rxnorm"/>
        <code value="312961"/>
        <display value="Simvastatin 20 MG Oral Tablet"/>
    </coding>
    <text value="Simvastatin 20 MG Oral Tablet"/>
  </medicationCodeableConcept>

  <whenHandedOver value="2008-08-20"/>

</MedicationDispense>

  </resource>
  <request>
    <method value="PUT"/>
    <url value="MedicationDispense/smart-MedicationDispense-1254"/>
  </request>
</entry>
<entry>
  <resource>
    
    
<MedicationDispense>
  <meta>
      <tag>
          <system value="https://smarthealthit.org/tags"/>
          <code value="smart-8-2017"/>
      </tag>
  </meta>
  <id value="smart-MedicationDispense-1255"/>
  <!--  insert contents here  -->
   <text>
    <status value="generated"/>
    <div xmlns="http://www.w3.org/1999/xhtml">
      Dispensed 90 tablets = 90 day supply of Simvastatin 20 MG Oral Tablet
    </div>
  </text>

  <status value="completed"/>

  <patient>
    <reference value="Patient/smart-1137192"/>
  </patient>

  <authorizingPrescription>
    <reference value="MedicationOrder/smart-MedicationOrder-122"/>
  </authorizingPrescription>

  <quantity>
      <value value="90"/>
      <unit value="tablets"/>
      <system value="http://unitsofmeasure.org"/>
      <code value="{tablets}"/>
  </quantity>

  <daysSupply>
      <value value="90" />
      <unit value="days" />
      <system value="http://unitsofmeasure.org" />
      <code value="d" />
  </daysSupply>

  <medicationCodeableConcept>
    <coding>
        <system value="http://www.nlm.nih.gov/research/umls/rxnorm"/>
        <code value="312961"/>
        <display value="Simvastatin 20 MG Oral Tablet"/>
    </coding>
    <text value="Simvastatin 20 MG Oral Tablet"/>
  </medicationCodeableConcept>

  <whenHandedOver value="2008-11-12"/>

</MedicationDispense>

  </resource>
  <request>
    <method value="PUT"/>
    <url value="MedicationDispense/smart-MedicationDispense-1255"/>
  </request>
</entry>
<entry>
  <resource>
    
    
<MedicationOrder>
  <meta>
      <tag>
          <system value="https://smarthealthit.org/tags"/>
          <code value="smart-8-2017"/>
      </tag>
  </meta>
  <id value="smart-MedicationOrder-123"/>
  <text>
    <status value="generated"/>
    <div xmlns="http://www.w3.org/1999/xhtml">
      Isosorbide Dinitrate 10 MG Oral Tablet (rxnorm: 381056)
    </div>
  </text>

  <status value="active" />
  <patient>
    <reference value="Patient/smart-1137192"/>
  </patient>

  <medicationCodeableConcept>
    <coding>
        <system value="http://www.nlm.nih.gov/research/umls/rxnorm"/>
        <code value="381056"/>
        <display value="Isosorbide Dinitrate 10 MG Oral Tablet"/>
    </coding>
    <text value="Isosorbide Dinitrate 10 MG Oral Tablet"/>
  </medicationCodeableConcept>

  <dosageInstruction>
    <timing>
      <repeat>
        <boundsPeriod>
          <start value="2008-08-20"/>
        </boundsPeriod>
        <frequency value="3"/>
        <period value="1"/>
        <periodUnits value="d"/>
      </repeat>
      
    </timing>
    <doseQuantity>
      <value value="1"/>
      <unit value="{tablet}"/>
      <system value="http://unitsofmeasure.org"/>
      <code value="{tablet}"/>
    </doseQuantity>
    
    <text value="1 tid"/>
  </dosageInstruction>
  <dispenseRequest>
     <numberOfRepeatsAllowed value="1"/>
     
     <quantity>
        <value value="270"/>
        <unit value="{tablet}"/>
        <system value="http://unitsofmeasure.org"/>
        <code value="{tablet}"/>
     </quantity>
     
     <expectedSupplyDuration>
        <value value="90"/>
        <unit value="days"/>
        <system value="http://unitsofmeasure.org"/>
        <code value="d"/>
     </expectedSupplyDuration>
     
  </dispenseRequest>
  
</MedicationOrder>

  </resource>
  <request>
    <method value="PUT"/>
    <url value="MedicationOrder/smart-MedicationOrder-123"/>
  </request>
</entry>
<entry>
  <resource>
    
    
<MedicationDispense>
  <meta>
      <tag>
          <system value="https://smarthealthit.org/tags"/>
          <code value="smart-8-2017"/>
      </tag>
  </meta>
  <id value="smart-MedicationDispense-1241"/>
  <!--  insert contents here  -->
   <text>
    <status value="generated"/>
    <div xmlns="http://www.w3.org/1999/xhtml">
      Dispensed 270 tablets = 90 day supply of Isosorbide Dinitrate 10 MG Oral Tablet
    </div>
  </text>

  <status value="completed"/>

  <patient>
    <reference value="Patient/smart-1137192"/>
  </patient>

  <authorizingPrescription>
    <reference value="MedicationOrder/smart-MedicationOrder-123"/>
  </authorizingPrescription>

  <quantity>
      <value value="270"/>
      <unit value="tablets"/>
      <system value="http://unitsofmeasure.org"/>
      <code value="{tablets}"/>
  </quantity>

  <daysSupply>
      <value value="90" />
      <unit value="days" />
      <system value="http://unitsofmeasure.org" />
      <code value="d" />
  </daysSupply>

  <medicationCodeableConcept>
    <coding>
        <system value="http://www.nlm.nih.gov/research/umls/rxnorm"/>
        <code value="381056"/>
        <display value="Isosorbide Dinitrate 10 MG Oral Tablet"/>
    </coding>
    <text value="Isosorbide Dinitrate 10 MG Oral Tablet"/>
  </medicationCodeableConcept>

  <whenHandedOver value="2009-06-24"/>

</MedicationDispense>

  </resource>
  <request>
    <method value="PUT"/>
    <url value="MedicationDispense/smart-MedicationDispense-1241"/>
  </request>
</entry>
<entry>
  <resource>
    
    
<MedicationDispense>
  <meta>
      <tag>
          <system value="https://smarthealthit.org/tags"/>
          <code value="smart-8-2017"/>
      </tag>
  </meta>
  <id value="smart-MedicationDispense-1242"/>
  <!--  insert contents here  -->
   <text>
    <status value="generated"/>
    <div xmlns="http://www.w3.org/1999/xhtml">
      Dispensed 270 tablets = 90 day supply of Isosorbide Dinitrate 10 MG Oral Tablet
    </div>
  </text>

  <status value="completed"/>

  <patient>
    <reference value="Patient/smart-1137192"/>
  </patient>

  <authorizingPrescription>
    <reference value="MedicationOrder/smart-MedicationOrder-123"/>
  </authorizingPrescription>

  <quantity>
      <value value="270"/>
      <unit value="tablets"/>
      <system value="http://unitsofmeasure.org"/>
      <code value="{tablets}"/>
  </quantity>

  <daysSupply>
      <value value="90" />
      <unit value="days" />
      <system value="http://unitsofmeasure.org" />
      <code value="d" />
  </daysSupply>

  <medicationCodeableConcept>
    <coding>
        <system value="http://www.nlm.nih.gov/research/umls/rxnorm"/>
        <code value="381056"/>
        <display value="Isosorbide Dinitrate 10 MG Oral Tablet"/>
    </coding>
    <text value="Isosorbide Dinitrate 10 MG Oral Tablet"/>
  </medicationCodeableConcept>

  <whenHandedOver value="2009-09-04"/>

</MedicationDispense>

  </resource>
  <request>
    <method value="PUT"/>
    <url value="MedicationDispense/smart-MedicationDispense-1242"/>
  </request>
</entry>
<entry>
  <resource>
    
    
<MedicationDispense>
  <meta>
      <tag>
          <system value="https://smarthealthit.org/tags"/>
          <code value="smart-8-2017"/>
      </tag>
  </meta>
  <id value="smart-MedicationDispense-1238"/>
  <!--  insert contents here  -->
   <text>
    <status value="generated"/>
    <div xmlns="http://www.w3.org/1999/xhtml">
      Dispensed 270 tablets = 90 day supply of Isosorbide Dinitrate 10 MG Oral Tablet
    </div>
  </text>

  <status value="completed"/>

  <patient>
    <reference value="Patient/smart-1137192"/>
  </patient>

  <authorizingPrescription>
    <reference value="MedicationOrder/smart-MedicationOrder-123"/>
  </authorizingPrescription>

  <quantity>
      <value value="270"/>
      <unit value="tablets"/>
      <system value="http://unitsofmeasure.org"/>
      <code value="{tablets}"/>
  </quantity>

  <daysSupply>
      <value value="90" />
      <unit value="days" />
      <system value="http://unitsofmeasure.org" />
      <code value="d" />
  </daysSupply>

  <medicationCodeableConcept>
    <coding>
        <system value="http://www.nlm.nih.gov/research/umls/rxnorm"/>
        <code value="381056"/>
        <display value="Isosorbide Dinitrate 10 MG Oral Tablet"/>
    </coding>
    <text value="Isosorbide Dinitrate 10 MG Oral Tablet"/>
  </medicationCodeableConcept>

  <whenHandedOver value="2008-08-20"/>

</MedicationDispense>

  </resource>
  <request>
    <method value="PUT"/>
    <url value="MedicationDispense/smart-MedicationDispense-1238"/>
  </request>
</entry>
<entry>
  <resource>
    
    
<MedicationDispense>
  <meta>
      <tag>
          <system value="https://smarthealthit.org/tags"/>
          <code value="smart-8-2017"/>
      </tag>
  </meta>
  <id value="smart-MedicationDispense-1239"/>
  <!--  insert contents here  -->
   <text>
    <status value="generated"/>
    <div xmlns="http://www.w3.org/1999/xhtml">
      Dispensed 270 tablets = 90 day supply of Isosorbide Dinitrate 10 MG Oral Tablet
    </div>
  </text>

  <status value="completed"/>

  <patient>
    <reference value="Patient/smart-1137192"/>
  </patient>

  <authorizingPrescription>
    <reference value="MedicationOrder/smart-MedicationOrder-123"/>
  </authorizingPrescription>

  <quantity>
      <value value="270"/>
      <unit value="tablets"/>
      <system value="http://unitsofmeasure.org"/>
      <code value="{tablets}"/>
  </quantity>

  <daysSupply>
      <value value="90" />
      <unit value="days" />
      <system value="http://unitsofmeasure.org" />
      <code value="d" />
  </daysSupply>

  <medicationCodeableConcept>
    <coding>
        <system value="http://www.nlm.nih.gov/research/umls/rxnorm"/>
        <code value="381056"/>
        <display value="Isosorbide Dinitrate 10 MG Oral Tablet"/>
    </coding>
    <text value="Isosorbide Dinitrate 10 MG Oral Tablet"/>
  </medicationCodeableConcept>

  <whenHandedOver value="2008-10-26"/>

</MedicationDispense>

  </resource>
  <request>
    <method value="PUT"/>
    <url value="MedicationDispense/smart-MedicationDispense-1239"/>
  </request>
</entry>
<entry>
  <resource>
    
    
<MedicationDispense>
  <meta>
      <tag>
          <system value="https://smarthealthit.org/tags"/>
          <code value="smart-8-2017"/>
      </tag>
  </meta>
  <id value="smart-MedicationDispense-1240"/>
  <!--  insert contents here  -->
   <text>
    <status value="generated"/>
    <div xmlns="http://www.w3.org/1999/xhtml">
      Dispensed 270 tablets = 90 day supply of Isosorbide Dinitrate 10 MG Oral Tablet
    </div>
  </text>

  <status value="completed"/>

  <patient>
    <reference value="Patient/smart-1137192"/>
  </patient>

  <authorizingPrescription>
    <reference value="MedicationOrder/smart-MedicationOrder-123"/>
  </authorizingPrescription>

  <quantity>
      <value value="270"/>
      <unit value="tablets"/>
      <system value="http://unitsofmeasure.org"/>
      <code value="{tablets}"/>
  </quantity>

  <daysSupply>
      <value value="90" />
      <unit value="days" />
      <system value="http://unitsofmeasure.org" />
      <code value="d" />
  </daysSupply>

  <medicationCodeableConcept>
    <coding>
        <system value="http://www.nlm.nih.gov/research/umls/rxnorm"/>
        <code value="381056"/>
        <display value="Isosorbide Dinitrate 10 MG Oral Tablet"/>
    </coding>
    <text value="Isosorbide Dinitrate 10 MG Oral Tablet"/>
  </medicationCodeableConcept>

  <whenHandedOver value="2009-02-05"/>

</MedicationDispense>

  </resource>
  <request>
    <method value="PUT"/>
    <url value="MedicationDispense/smart-MedicationDispense-1240"/>
  </request>
</entry>
<entry>
  <resource>
    
    
<MedicationOrder>
  <meta>
      <tag>
          <system value="https://smarthealthit.org/tags"/>
          <code value="smart-8-2017"/>
      </tag>
  </meta>
  <id value="smart-MedicationOrder-124"/>
  <text>
    <status value="generated"/>
    <div xmlns="http://www.w3.org/1999/xhtml">
      Metoprolol 100 MG Oral Tablet (rxnorm: 866511)
    </div>
  </text>

  <status value="active" />
  <patient>
    <reference value="Patient/smart-1137192"/>
  </patient>

  <medicationCodeableConcept>
    <coding>
        <system value="http://www.nlm.nih.gov/research/umls/rxnorm"/>
        <code value="866511"/>
        <display value="Metoprolol 100 MG Oral Tablet"/>
    </coding>
    <text value="Metoprolol 100 MG Oral Tablet"/>
  </medicationCodeableConcept>

  <dosageInstruction>
    <timing>
      <repeat>
        <boundsPeriod>
          <start value="2008-08-20"/>
        </boundsPeriod>
        <frequency value="1"/>
        <period value="1"/>
        <periodUnits value="d"/>
      </repeat>
      
    </timing>
    <doseQuantity>
      <value value="1"/>
      <unit value="{tablet}"/>
      <system value="http://unitsofmeasure.org"/>
      <code value="{tablet}"/>
    </doseQuantity>
    
    <text value="1 daily"/>
  </dosageInstruction>
  <dispenseRequest>
     <numberOfRepeatsAllowed value="1"/>
     
     <quantity>
        <value value="180"/>
        <unit value="{tablet}"/>
        <system value="http://unitsofmeasure.org"/>
        <code value="{tablet}"/>
     </quantity>
     
     <expectedSupplyDuration>
        <value value="90"/>
        <unit value="days"/>
        <system value="http://unitsofmeasure.org"/>
        <code value="d"/>
     </expectedSupplyDuration>
     
  </dispenseRequest>
  
</MedicationOrder>

  </resource>
  <request>
    <method value="PUT"/>
    <url value="MedicationOrder/smart-MedicationOrder-124"/>
  </request>
</entry>
<entry>
  <resource>
    
    
<MedicationDispense>
  <meta>
      <tag>
          <system value="https://smarthealthit.org/tags"/>
          <code value="smart-8-2017"/>
      </tag>
  </meta>
  <id value="smart-MedicationDispense-1244"/>
  <!--  insert contents here  -->
   <text>
    <status value="generated"/>
    <div xmlns="http://www.w3.org/1999/xhtml">
      Dispensed 180 tablets = 90 day supply of Metoprolol 100 MG Oral Tablet
    </div>
  </text>

  <status value="completed"/>

  <patient>
    <reference value="Patient/smart-1137192"/>
  </patient>

  <authorizingPrescription>
    <reference value="MedicationOrder/smart-MedicationOrder-124"/>
  </authorizingPrescription>

  <quantity>
      <value value="180"/>
      <unit value="tablets"/>
      <system value="http://unitsofmeasure.org"/>
      <code value="{tablets}"/>
  </quantity>

  <daysSupply>
      <value value="90" />
      <unit value="days" />
      <system value="http://unitsofmeasure.org" />
      <code value="d" />
  </daysSupply>

  <medicationCodeableConcept>
    <coding>
        <system value="http://www.nlm.nih.gov/research/umls/rxnorm"/>
        <code value="866511"/>
        <display value="Metoprolol 100 MG Oral Tablet"/>
    </coding>
    <text value="Metoprolol 100 MG Oral Tablet"/>
  </medicationCodeableConcept>

  <whenHandedOver value="2008-08-20"/>

</MedicationDispense>

  </resource>
  <request>
    <method value="PUT"/>
    <url value="MedicationDispense/smart-MedicationDispense-1244"/>
  </request>
</entry>
<entry>
  <resource>
    
    
<MedicationDispense>
  <meta>
      <tag>
          <system value="https://smarthealthit.org/tags"/>
          <code value="smart-8-2017"/>
      </tag>
  </meta>
  <id value="smart-MedicationDispense-1245"/>
  <!--  insert contents here  -->
   <text>
    <status value="generated"/>
    <div xmlns="http://www.w3.org/1999/xhtml">
      Dispensed 180 tablets = 90 day supply of Metoprolol 100 MG Oral Tablet
    </div>
  </text>

  <status value="completed"/>

  <patient>
    <reference value="Patient/smart-1137192"/>
  </patient>

  <authorizingPrescription>
    <reference value="MedicationOrder/smart-MedicationOrder-124"/>
  </authorizingPrescription>

  <quantity>
      <value value="180"/>
      <unit value="tablets"/>
      <system value="http://unitsofmeasure.org"/>
      <code value="{tablets}"/>
  </quantity>

  <daysSupply>
      <value value="90" />
      <unit value="days" />
      <system value="http://unitsofmeasure.org" />
      <code value="d" />
  </daysSupply>

  <medicationCodeableConcept>
    <coding>
        <system value="http://www.nlm.nih.gov/research/umls/rxnorm"/>
        <code value="866511"/>
        <display value="Metoprolol 100 MG Oral Tablet"/>
    </coding>
    <text value="Metoprolol 100 MG Oral Tablet"/>
  </medicationCodeableConcept>

  <whenHandedOver value="2008-10-26"/>

</MedicationDispense>

  </resource>
  <request>
    <method value="PUT"/>
    <url value="MedicationDispense/smart-MedicationDispense-1245"/>
  </request>
</entry>
<entry>
  <resource>
    
    
<MedicationOrder>
  <meta>
      <tag>
          <system value="https://smarthealthit.org/tags"/>
          <code value="smart-8-2017"/>
      </tag>
  </meta>
  <id value="smart-MedicationOrder-125"/>
  <text>
    <status value="generated"/>
    <div xmlns="http://www.w3.org/1999/xhtml">
      Metoprolol 50 MG Oral Tablet (rxnorm: 866514)
    </div>
  </text>

  <status value="active" />
  <patient>
    <reference value="Patient/smart-1137192"/>
  </patient>

  <medicationCodeableConcept>
    <coding>
        <system value="http://www.nlm.nih.gov/research/umls/rxnorm"/>
        <code value="866514"/>
        <display value="Metoprolol 50 MG Oral Tablet"/>
    </coding>
    <text value="Metoprolol 50 MG Oral Tablet"/>
  </medicationCodeableConcept>

  <dosageInstruction>
    <timing>
      <repeat>
        <boundsPeriod>
          <start value="2009-02-05"/>
        </boundsPeriod>
        <frequency value="2"/>
        <period value="1"/>
        <periodUnits value="d"/>
      </repeat>
      
    </timing>
    <doseQuantity>
      <value value="1"/>
      <unit value="{tablet}"/>
      <system value="http://unitsofmeasure.org"/>
      <code value="{tablet}"/>
    </doseQuantity>
    
    <text value="1 bid"/>
  </dosageInstruction>
  <dispenseRequest>
     <numberOfRepeatsAllowed value="1"/>
     
     <quantity>
        <value value="180"/>
        <unit value="{tablet}"/>
        <system value="http://unitsofmeasure.org"/>
        <code value="{tablet}"/>
     </quantity>
     
     <expectedSupplyDuration>
        <value value="90"/>
        <unit value="days"/>
        <system value="http://unitsofmeasure.org"/>
        <code value="d"/>
     </expectedSupplyDuration>
     
  </dispenseRequest>
  
</MedicationOrder>

  </resource>
  <request>
    <method value="PUT"/>
    <url value="MedicationOrder/smart-MedicationOrder-125"/>
  </request>
</entry>
<entry>
  <resource>
    
    
<MedicationDispense>
  <meta>
      <tag>
          <system value="https://smarthealthit.org/tags"/>
          <code value="smart-8-2017"/>
      </tag>
  </meta>
  <id value="smart-MedicationDispense-1246"/>
  <!--  insert contents here  -->
   <text>
    <status value="generated"/>
    <div xmlns="http://www.w3.org/1999/xhtml">
      Dispensed 180 tablets = 90 day supply of Metoprolol 50 MG Oral Tablet
    </div>
  </text>

  <status value="completed"/>

  <patient>
    <reference value="Patient/smart-1137192"/>
  </patient>

  <authorizingPrescription>
    <reference value="MedicationOrder/smart-MedicationOrder-125"/>
  </authorizingPrescription>

  <quantity>
      <value value="180"/>
      <unit value="tablets"/>
      <system value="http://unitsofmeasure.org"/>
      <code value="{tablets}"/>
  </quantity>

  <daysSupply>
      <value value="90" />
      <unit value="days" />
      <system value="http://unitsofmeasure.org" />
      <code value="d" />
  </daysSupply>

  <medicationCodeableConcept>
    <coding>
        <system value="http://www.nlm.nih.gov/research/umls/rxnorm"/>
        <code value="866514"/>
        <display value="Metoprolol 50 MG Oral Tablet"/>
    </coding>
    <text value="Metoprolol 50 MG Oral Tablet"/>
  </medicationCodeableConcept>

  <whenHandedOver value="2009-02-05"/>

</MedicationDispense>

  </resource>
  <request>
    <method value="PUT"/>
    <url value="MedicationDispense/smart-MedicationDispense-1246"/>
  </request>
</entry>
<entry>
  <resource>
    
    
<MedicationDispense>
  <meta>
      <tag>
          <system value="https://smarthealthit.org/tags"/>
          <code value="smart-8-2017"/>
      </tag>
  </meta>
  <id value="smart-MedicationDispense-1248"/>
  <!--  insert contents here  -->
   <text>
    <status value="generated"/>
    <div xmlns="http://www.w3.org/1999/xhtml">
      Dispensed 180 tablets = 90 day supply of Metoprolol 50 MG Oral Tablet
    </div>
  </text>

  <status value="completed"/>

  <patient>
    <reference value="Patient/smart-1137192"/>
  </patient>

  <authorizingPrescription>
    <reference value="MedicationOrder/smart-MedicationOrder-125"/>
  </authorizingPrescription>

  <quantity>
      <value value="180"/>
      <unit value="tablets"/>
      <system value="http://unitsofmeasure.org"/>
      <code value="{tablets}"/>
  </quantity>

  <daysSupply>
      <value value="90" />
      <unit value="days" />
      <system value="http://unitsofmeasure.org" />
      <code value="d" />
  </daysSupply>

  <medicationCodeableConcept>
    <coding>
        <system value="http://www.nlm.nih.gov/research/umls/rxnorm"/>
        <code value="866514"/>
        <display value="Metoprolol 50 MG Oral Tablet"/>
    </coding>
    <text value="Metoprolol 50 MG Oral Tablet"/>
  </medicationCodeableConcept>

  <whenHandedOver value="2009-09-04"/>

</MedicationDispense>

  </resource>
  <request>
    <method value="PUT"/>
    <url value="MedicationDispense/smart-MedicationDispense-1248"/>
  </request>
</entry>
<entry>
  <resource>
    
    
<MedicationDispense>
  <meta>
      <tag>
          <system value="https://smarthealthit.org/tags"/>
          <code value="smart-8-2017"/>
      </tag>
  </meta>
  <id value="smart-MedicationDispense-1247"/>
  <!--  insert contents here  -->
   <text>
    <status value="generated"/>
    <div xmlns="http://www.w3.org/1999/xhtml">
      Dispensed 180 tablets = 90 day supply of Metoprolol 50 MG Oral Tablet
    </div>
  </text>

  <status value="completed"/>

  <patient>
    <reference value="Patient/smart-1137192"/>
  </patient>

  <authorizingPrescription>
    <reference value="MedicationOrder/smart-MedicationOrder-125"/>
  </authorizingPrescription>

  <quantity>
      <value value="180"/>
      <unit value="tablets"/>
      <system value="http://unitsofmeasure.org"/>
      <code value="{tablets}"/>
  </quantity>

  <daysSupply>
      <value value="90" />
      <unit value="days" />
      <system value="http://unitsofmeasure.org" />
      <code value="d" />
  </daysSupply>

  <medicationCodeableConcept>
    <coding>
        <system value="http://www.nlm.nih.gov/research/umls/rxnorm"/>
        <code value="866514"/>
        <display value="Metoprolol 50 MG Oral Tablet"/>
    </coding>
    <text value="Metoprolol 50 MG Oral Tablet"/>
  </medicationCodeableConcept>

  <whenHandedOver value="2009-05-04"/>

</MedicationDispense>

  </resource>
  <request>
    <method value="PUT"/>
    <url value="MedicationDispense/smart-MedicationDispense-1247"/>
  </request>
</entry>
<entry>
  <resource>
    
    
<MedicationOrder>
  <meta>
      <tag>
          <system value="https://smarthealthit.org/tags"/>
          <code value="smart-8-2017"/>
      </tag>
  </meta>
  <id value="smart-MedicationOrder-126"/>
  <text>
    <status value="generated"/>
    <div xmlns="http://www.w3.org/1999/xhtml">
      Diazepam 10 MG Oral Tablet (rxnorm: 197589)
    </div>
  </text>

  <status value="active" />
  <patient>
    <reference value="Patient/smart-1137192"/>
  </patient>

  <medicationCodeableConcept>
    <coding>
        <system value="http://www.nlm.nih.gov/research/umls/rxnorm"/>
        <code value="197589"/>
        <display value="Diazepam 10 MG Oral Tablet"/>
    </coding>
    <text value="Diazepam 10 MG Oral Tablet"/>
  </medicationCodeableConcept>

  <dosageInstruction>
    <timing>
      <repeat>
        <boundsPeriod>
          <start value="2009-07-13"/>
        </boundsPeriod>
        <frequency value="2"/>
        <period value="1"/>
        <periodUnits value="d"/>
      </repeat>
      
    </timing>
    <doseQuantity>
      <value value="1"/>
      <unit value="{tablet}"/>
      <system value="http://unitsofmeasure.org"/>
      <code value="{tablet}"/>
    </doseQuantity>
    
    <asNeededBoolean value="true"/>
    
    <text value="1 bid prn anxiety"/>
  </dosageInstruction>
  <dispenseRequest>
     <numberOfRepeatsAllowed value="1"/>
     
     <quantity>
        <value value="6"/>
        <unit value="{tablet}"/>
        <system value="http://unitsofmeasure.org"/>
        <code value="{tablet}"/>
     </quantity>
     
     <expectedSupplyDuration>
        <value value="6"/>
        <unit value="days"/>
        <system value="http://unitsofmeasure.org"/>
        <code value="d"/>
     </expectedSupplyDuration>
     
  </dispenseRequest>
  
</MedicationOrder>

  </resource>
  <request>
    <method value="PUT"/>
    <url value="MedicationOrder/smart-MedicationOrder-126"/>
  </request>
</entry>
<entry>
  <resource>
    
    
<MedicationDispense>
  <meta>
      <tag>
          <system value="https://smarthealthit.org/tags"/>
          <code value="smart-8-2017"/>
      </tag>
  </meta>
  <id value="smart-MedicationDispense-1243"/>
  <!--  insert contents here  -->
   <text>
    <status value="generated"/>
    <div xmlns="http://www.w3.org/1999/xhtml">
      Dispensed 6 tablets = 6 day supply of Diazepam 10 MG Oral Tablet
    </div>
  </text>

  <status value="completed"/>

  <patient>
    <reference value="Patient/smart-1137192"/>
  </patient>

  <authorizingPrescription>
    <reference value="MedicationOrder/smart-MedicationOrder-126"/>
  </authorizingPrescription>

  <quantity>
      <value value="6"/>
      <unit value="tablets"/>
      <system value="http://unitsofmeasure.org"/>
      <code value="{tablets}"/>
  </quantity>

  <daysSupply>
      <value value="6" />
      <unit value="days" />
      <system value="http://unitsofmeasure.org" />
      <code value="d" />
  </daysSupply>

  <medicationCodeableConcept>
    <coding>
        <system value="http://www.nlm.nih.gov/research/umls/rxnorm"/>
        <code value="197589"/>
        <display value="Diazepam 10 MG Oral Tablet"/>
    </coding>
    <text value="Diazepam 10 MG Oral Tablet"/>
  </medicationCodeableConcept>

  <whenHandedOver value="2009-07-13"/>

</MedicationDispense>

  </resource>
  <request>
    <method value="PUT"/>
    <url value="MedicationDispense/smart-MedicationDispense-1243"/>
  </request>
</entry>
<entry>
  <resource>
    
    
<MedicationOrder>
  <meta>
      <tag>
          <system value="https://smarthealthit.org/tags"/>
          <code value="smart-8-2017"/>
      </tag>
  </meta>
  <id value="smart-MedicationOrder-127"/>
  <text>
    <status value="generated"/>
    <div xmlns="http://www.w3.org/1999/xhtml">
      Methylprednisolone 4 MG Oral Tablet (rxnorm: 762675)
    </div>
  </text>

  <status value="active" />
  <patient>
    <reference value="Patient/smart-1137192"/>
  </patient>

  <medicationCodeableConcept>
    <coding>
        <system value="http://www.nlm.nih.gov/research/umls/rxnorm"/>
        <code value="762675"/>
        <display value="Methylprednisolone 4 MG Oral Tablet"/>
    </coding>
    <text value="Methylprednisolone 4 MG Oral Tablet"/>
  </medicationCodeableConcept>

  <dosageInstruction>
    <timing>
    </timing>
    <text value="taper as directed"/>
  </dosageInstruction>
  <dispenseRequest>
     <numberOfRepeatsAllowed value="1"/>
     
     <quantity>
        <value value="21"/>
        <unit value=""/>
        <system value="http://unitsofmeasure.org"/>
        <code value=""/>
     </quantity>
     
     <expectedSupplyDuration>
        <value value="3"/>
        <unit value="days"/>
        <system value="http://unitsofmeasure.org"/>
        <code value="d"/>
     </expectedSupplyDuration>
     
  </dispenseRequest>
  
</MedicationOrder>

  </resource>
  <request>
    <method value="PUT"/>
    <url value="MedicationOrder/smart-MedicationOrder-127"/>
  </request>
</entry>
<entry>
  <resource>
    
    
<MedicationDispense>
  <meta>
      <tag>
          <system value="https://smarthealthit.org/tags"/>
          <code value="smart-8-2017"/>
      </tag>
  </meta>
  <id value="smart-MedicationDispense-1259"/>
  <!--  insert contents here  -->
   <text>
    <status value="generated"/>
    <div xmlns="http://www.w3.org/1999/xhtml">
      Dispensed 21 tablets = 3 day supply of Methylprednisolone 4 MG Oral Tablet
    </div>
  </text>

  <status value="completed"/>

  <patient>
    <reference value="Patient/smart-1137192"/>
  </patient>

  <authorizingPrescription>
    <reference value="MedicationOrder/smart-MedicationOrder-127"/>
  </authorizingPrescription>

  <quantity>
      <value value="21"/>
      <unit value="tablets"/>
      <system value="http://unitsofmeasure.org"/>
      <code value="{tablets}"/>
  </quantity>

  <daysSupply>
      <value value="3" />
      <unit value="days" />
      <system value="http://unitsofmeasure.org" />
      <code value="d" />
  </daysSupply>

  <medicationCodeableConcept>
    <coding>
        <system value="http://www.nlm.nih.gov/research/umls/rxnorm"/>
        <code value="762675"/>
        <display value="Methylprednisolone 4 MG Oral Tablet"/>
    </coding>
    <text value="Methylprednisolone 4 MG Oral Tablet"/>
  </medicationCodeableConcept>

  <whenHandedOver value="2009-07-13"/>

</MedicationDispense>

  </resource>
  <request>
    <method value="PUT"/>
    <url value="MedicationDispense/smart-MedicationDispense-1259"/>
  </request>
</entry>
  <entry>
  <resource>
    
    
  <Condition>
  <meta>
      <tag>
          <system value="https://smarthealthit.org/tags"/>
          <code value="smart-8-2017"/>
      </tag>
  </meta>
  <id value="smart-Condition-472"/>
    <text>
     <status value="generated"/>
     <div xmlns="http://www.w3.org/1999/xhtml">Chronic ischemic heart disease</div>   
   </text>
    <patient>
      <reference value="Patient/smart-1137192"/>
    </patient>
    <code> 
      <coding>
        <system value="http://snomed.info/sct"/>
        <code value="413838009"/>
        <display value="Chronic ischemic heart disease"/>
      </coding>
      <text value="Chronic ischemic heart disease"/>
    </code>
   <clinicalStatus value="active"/>
   <verificationStatus value="confirmed"/>
   <onsetDateTime value="2004-06-11"/>
   
  </Condition>
  
  </resource>
  <request>
    <method value="PUT"/>
    <url value="Condition/smart-Condition-472"/>
  </request>
</entry>
  <entry>
  <resource>
    
    
  <Condition>
  <meta>
      <tag>
          <system value="https://smarthealthit.org/tags"/>
          <code value="smart-8-2017"/>
      </tag>
  </meta>
  <id value="smart-Condition-473"/>
    <text>
     <status value="generated"/>
     <div xmlns="http://www.w3.org/1999/xhtml">Coronary arteriosclerosis</div>   
   </text>
    <patient>
      <reference value="Patient/smart-1137192"/>
    </patient>
    <code> 
      <coding>
        <system value="http://snomed.info/sct"/>
        <code value="53741008"/>
        <display value="Coronary arteriosclerosis"/>
      </coding>
      <text value="Coronary arteriosclerosis"/>
    </code>
   <clinicalStatus value="active"/>
   <verificationStatus value="confirmed"/>
   <onsetDateTime value="2005-06-03"/>
   
  </Condition>
  
  </resource>
  <request>
    <method value="PUT"/>
    <url value="Condition/smart-Condition-473"/>
  </request>
</entry>
  <entry>
  <resource>
    
    
  <Condition>
  <meta>
      <tag>
          <system value="https://smarthealthit.org/tags"/>
          <code value="smart-8-2017"/>
      </tag>
  </meta>
  <id value="smart-Condition-474"/>
    <text>
     <status value="generated"/>
     <div xmlns="http://www.w3.org/1999/xhtml">Benign prostatic hyperplasia</div>   
   </text>
    <patient>
      <reference value="Patient/smart-1137192"/>
    </patient>
    <code> 
      <coding>
        <system value="http://snomed.info/sct"/>
        <code value="254902007"/>
        <display value="Benign prostatic hyperplasia"/>
      </coding>
      <text value="Benign prostatic hyperplasia"/>
    </code>
   <clinicalStatus value="active"/>
   <verificationStatus value="confirmed"/>
   <onsetDateTime value="2006-11-05"/>
   
  </Condition>
  
  </resource>
  <request>
    <method value="PUT"/>
    <url value="Condition/smart-Condition-474"/>
  </request>
</entry>
  <entry>
  <resource>
    
    
  <Condition>
  <meta>
      <tag>
          <system value="https://smarthealthit.org/tags"/>
          <code value="smart-8-2017"/>
      </tag>
  </meta>
  <id value="smart-Condition-475"/>
    <text>
     <status value="generated"/>
     <div xmlns="http://www.w3.org/1999/xhtml">Anxiety</div>   
   </text>
    <patient>
      <reference value="Patient/smart-1137192"/>
    </patient>
    <code> 
      <coding>
        <system value="http://snomed.info/sct"/>
        <code value="48694002"/>
        <display value="Anxiety"/>
      </coding>
      <text value="Anxiety"/>
    </code>
   <clinicalStatus value="active"/>
   <verificationStatus value="confirmed"/>
   <onsetDateTime value="2007-09-22"/>
   
  </Condition>
  
  </resource>
  <request>
    <method value="PUT"/>
    <url value="Condition/smart-Condition-475"/>
  </request>
</entry>
  <entry>
  <resource>
    
    
  <Condition>
  <meta>
      <tag>
          <system value="https://smarthealthit.org/tags"/>
          <code value="smart-8-2017"/>
      </tag>
  </meta>
  <id value="smart-Condition-476"/>
    <text>
     <status value="generated"/>
     <div xmlns="http://www.w3.org/1999/xhtml">Single major depressive episode, mild</div>   
   </text>
    <patient>
      <reference value="Patient/smart-1137192"/>
    </patient>
    <code> 
      <coding>
        <system value="http://snomed.info/sct"/>
        <code value="79298009"/>
        <display value="Single major depressive episode, mild"/>
      </coding>
      <text value="Single major depressive episode, mild"/>
    </code>
   <clinicalStatus value="active"/>
   <verificationStatus value="confirmed"/>
   <onsetDateTime value="2007-10-26"/>
   
  </Condition>
  
  </resource>
  <request>
    <method value="PUT"/>
    <url value="Condition/smart-Condition-476"/>
  </request>
</entry>
  <entry>
  <resource>
    
    
  <Condition>
  <meta>
      <tag>
          <system value="https://smarthealthit.org/tags"/>
          <code value="smart-8-2017"/>
      </tag>
  </meta>
  <id value="smart-Condition-477"/>
    <text>
     <status value="generated"/>
     <div xmlns="http://www.w3.org/1999/xhtml">Abnormal ECG</div>   
   </text>
    <patient>
      <reference value="Patient/smart-1137192"/>
    </patient>
    <code> 
      <coding>
        <system value="http://snomed.info/sct"/>
        <code value="102594003"/>
        <display value="Abnormal ECG"/>
      </coding>
      <text value="Abnormal ECG"/>
    </code>
   <clinicalStatus value="active"/>
   <verificationStatus value="confirmed"/>
   <onsetDateTime value="2008-05-30"/>
   
  </Condition>
  
  </resource>
  <request>
    <method value="PUT"/>
    <url value="Condition/smart-Condition-477"/>
  </request>
</entry>
  <entry>
  <resource>
    
    
  <Condition>
  <meta>
      <tag>
          <system value="https://smarthealthit.org/tags"/>
          <code value="smart-8-2017"/>
      </tag>
  </meta>
  <id value="smart-Condition-478"/>
    <text>
     <status value="generated"/>
     <div xmlns="http://www.w3.org/1999/xhtml">Abdominal pain</div>   
   </text>
    <patient>
      <reference value="Patient/smart-1137192"/>
    </patient>
    <code> 
      <coding>
        <system value="http://snomed.info/sct"/>
        <code value="21522001"/>
        <display value="Abdominal pain"/>
      </coding>
      <text value="Abdominal pain"/>
    </code>
   <clinicalStatus value="active"/>
   <verificationStatus value="confirmed"/>
   <onsetDateTime value="2009-07-04"/>
   
  </Condition>
  
  </resource>
  <request>
    <method value="PUT"/>
    <url value="Condition/smart-Condition-478"/>
  </request>
</entry>
  <entry>
  <resource>
    
    
  <Condition>
  <meta>
      <tag>
          <system value="https://smarthealthit.org/tags"/>
          <code value="smart-8-2017"/>
      </tag>
  </meta>
  <id value="smart-Condition-479"/>
    <text>
     <status value="generated"/>
     <div xmlns="http://www.w3.org/1999/xhtml">Migraine with aura</div>   
   </text>
    <patient>
      <reference value="Patient/smart-1137192"/>
    </patient>
    <code> 
      <coding>
        <system value="http://snomed.info/sct"/>
        <code value="230462002"/>
        <display value="Migraine with aura"/>
      </coding>
      <text value="Migraine with aura"/>
    </code>
   <clinicalStatus value="active"/>
   <verificationStatus value="confirmed"/>
   <onsetDateTime value="2009-07-04"/>
   
  </Condition>
  
  </resource>
  <request>
    <method value="PUT"/>
    <url value="Condition/smart-Condition-479"/>
  </request>
</entry>
  <entry>
  <resource>
    
    
  <Condition>
  <meta>
      <tag>
          <system value="https://smarthealthit.org/tags"/>
          <code value="smart-8-2017"/>
      </tag>
  </meta>
  <id value="smart-Condition-480"/>
    <text>
     <status value="generated"/>
     <div xmlns="http://www.w3.org/1999/xhtml">Visual disturbance</div>   
   </text>
    <patient>
      <reference value="Patient/smart-1137192"/>
    </patient>
    <code> 
      <coding>
        <system value="http://snomed.info/sct"/>
        <code value="63102001"/>
        <display value="Visual disturbance"/>
      </coding>
      <text value="Visual disturbance"/>
    </code>
   <clinicalStatus value="active"/>
   <verificationStatus value="confirmed"/>
   <onsetDateTime value="2009-07-04"/>
   
  </Condition>
  
  </resource>
  <request>
    <method value="PUT"/>
    <url value="Condition/smart-Condition-480"/>
  </request>
</entry>
  <entry>
  <resource>
    
    
  <Condition>
  <meta>
      <tag>
          <system value="https://smarthealthit.org/tags"/>
          <code value="smart-8-2017"/>
      </tag>
  </meta>
  <id value="smart-Condition-481"/>
    <text>
     <status value="generated"/>
     <div xmlns="http://www.w3.org/1999/xhtml">Mononeuritis of lower limb</div>   
   </text>
    <patient>
      <reference value="Patient/smart-1137192"/>
    </patient>
    <code> 
      <coding>
        <system value="http://snomed.info/sct"/>
        <code value="297946004"/>
        <display value="Mononeuritis of lower limb"/>
      </coding>
      <text value="Mononeuritis of lower limb"/>
    </code>
   <clinicalStatus value="active"/>
   <verificationStatus value="confirmed"/>
   <onsetDateTime value="2009-07-13"/>
   
  </Condition>
  
  </resource>
  <request>
    <method value="PUT"/>
    <url value="Condition/smart-Condition-481"/>
  </request>
</entry>
<entry>
  <resource>
    
    
  <Observation>
  <id value="smart-Observation-45-smokingstatus"/>
    <text>
      <status value="generated"/>
      <div xmlns="http://www.w3.org/1999/xhtml">Tobacco smoking status: Unknown if ever smoked</div>
    </text>
    <category>
      <coding>
          <system value="http://hl7.org/fhir/observation-category"/>
          <code value="social-history"/>
          <display value="Social History"/>
      </coding>
      <text value="Social History"/>
    </category>
    <code>
      <coding>
        <system value="http://loinc.org"/>
        <code value="72166-2"/>
        <display value="Tobacco smoking status"/>
      </coding>
      <text value="Tobacco smoking status"/>
    </code>
    <valueCodeableConcept>
      <coding>
        <system value="http://snomed.info/sct"/>
        <code value="266927001"/>
        <display value="Unknown if ever smoked"/>
      </coding>
      <text value="Unknown if ever smoked"/>
    </valueCodeableConcept>
    <status value="final"/>
    <subject>
      <reference value="Patient/smart-1137192"/>
    </subject>
  </Observation>
  
  </resource>
  <request>
    <method value="PUT"/>
    <url value="Observation/smart-Observation-45-smokingstatus"/>
  </request>
</entry>
<entry>
  <resource>
    
    
  <Observation>
    <meta>
        <tag>
            <system value="https://smarthealthit.org/tags"/>
            <code value="smart-8-2017"/>
        </tag>
    </meta>
  <id value="smart-Observation-1137192-gestage"/>
    <text>
      <status value="generated"/>
      <div xmlns="http://www.w3.org/1999/xhtml">1954-08-21: Gestational age at birth = 45.2 weeks</div>
    </text>
    <category>
      <coding>
          <system value="http://hl7.org/fhir/observation-category"/>
          <code value="exam"/>
          <display value="Exam"/>
      </coding>
      <text value="Exam"/>
    </category>
    <code>
      <coding>
        <system value="http://loinc.org"/>
        <code value="18185-9"/>
        <display value="Gestational age at birth"/>
      </coding>
      <text value="Gestational age at birth"/>
    </code>
    <valueQuantity>
      <value value="45.2"/>
      <unit value="weeks"/>
      <system value="http://unitsofmeasure.org" />
      <code value="wk"/>
    </valueQuantity>
    
    <effectiveDateTime value="1954-08-21"/>
    <status value="final"/>
    <subject>
      <reference value="Patient/smart-1137192"/>
    </subject>
  </Observation>
  
  </resource>
  <request>
    <method value="PUT"/>
    <url value="Observation/smart-Observation-1137192-gestage"/>
  </request>
</entry>
  <entry>
  <resource>
    
    
    <AllergyIntolerance>
      <meta>
          <tag>
              <system value="https://smarthealthit.org/tags"/>
              <code value="smart-8-2017"/>
          </tag>
      </meta>
      <id value="smart-AllergyIntolerance-23"/>
        <text>
            <status value="generated"/>
            <div xmlns="http://www.w3.org/1999/xhtml">Sensitivity to sulfonamide antibacterial</div>
        </text>
        <criticality value="CRITL"/>
        
        <category value="medication"/>
        <recordedDate value="2000"/>
        <status value="confirmed"/>
        <patient>
          <reference value="Patient/smart-1137192"/>
        </patient>
        <substance>
          <coding>
            <system value="http://rxnav.nlm.nih.gov/REST/Ndfrt"/>
            <code value="N0000175503"/>
            <display value="sulfonamide antibacterial"/>
          </coding>
          <text value="sulfonamide antibacterial"/>
        </substance>
        <reaction>
          <manifestation>
            <coding>
              <system value="http://snomed.info/sct"/>
              <code value="271807003"/>
              <display value="skin rash"/>
            </coding>
            <text value="skin rash"/>
          </manifestation>
          <severity value="mild"/>
        
        </reaction>
        
    </AllergyIntolerance>
  
  </resource>
  <request>
    <method value="PUT"/>
    <url value="AllergyIntolerance/smart-AllergyIntolerance-23"/>
  </request>
</entry>

</Bundle>
