<?xml version="1.0" encoding="UTF-8"?>
<Bundle xmlns="http://hl7.org/fhir">
    <type value="transaction"/>

  <entry>
  <resource>
    
    
  <Patient>
    <meta>
        <tag>
            <system value="https://smarthealthit.org/tags"/>
            <code value="smart-8-2017"/>
        </tag>
    </meta>
    <id value="smart-7777702"/>
    <text>
      <status value="generated"/>
      <div xmlns="http://www.w3.org/1999/xhtml">
        <p>Yolanda Warren</p>
      </div>
    </text>
    <identifier>
      <use value="usual"/>
      <type>
        <coding>
          <system value="http://hl7.org/fhir/v2/0203"/>
          <code value="MR"/>
          <display value="Medical record number"/>
        </coding>
        <text value="Medical record number"/>
      </type>
      <system value="http://hospital.smarthealthit.org"/>
      <value value="7777702"/>
    </identifier>
    <name>
      <use value="official"/>
      <family value="Warren"/>
      <given value="Yolanda"/>
    </name>
    <gender value="female" />
    <birthDate value="2008-10-01" />
    <active value="true"/>
  </Patient>
  
  </resource>
  <request>
    <method value="PUT"/>
    <url value="Patient/smart-7777702"/>
  </request>
</entry>
  <entry>
  <resource>
    
    
    <Encounter>
      <meta>
          <tag>
              <system value="https://smarthealthit.org/tags"/>
              <code value="smart-8-2017"/>
          </tag>
      </meta>
      <id value="smart-Encounter-984"/>
      <text>
        <status value="generated"/>
        <div xmlns="http://www.w3.org/1999/xhtml">2010-10-04: ambulatory encounter</div>
      </text>
      <status value="finished"/>
      <class value="ambulatory"/>
      <patient>
        <reference value="Patient/smart-7777702"/>
      </patient>
      <period>
       <start value="2010-10-04"/>
       <end value="2010-10-04"/>
      </period>
    </Encounter>
  
  </resource>
  <request>
    <method value="PUT"/>
    <url value="Encounter/smart-Encounter-984"/>
  </request>
</entry>
  <entry>
  <resource>
    
    
    <Encounter>
      <meta>
          <tag>
              <system value="https://smarthealthit.org/tags"/>
              <code value="smart-8-2017"/>
          </tag>
      </meta>
      <id value="smart-Encounter-985"/>
      <text>
        <status value="generated"/>
        <div xmlns="http://www.w3.org/1999/xhtml">2010-11-10: ambulatory encounter</div>
      </text>
      <status value="finished"/>
      <class value="ambulatory"/>
      <patient>
        <reference value="Patient/smart-7777702"/>
      </patient>
      <period>
       <start value="2010-11-10"/>
       <end value="2010-11-10"/>
      </period>
    </Encounter>
  
  </resource>
  <request>
    <method value="PUT"/>
    <url value="Encounter/smart-Encounter-985"/>
  </request>
</entry>
  <entry>
  <resource>
    
    
    <Encounter>
      <meta>
          <tag>
              <system value="https://smarthealthit.org/tags"/>
              <code value="smart-8-2017"/>
          </tag>
      </meta>
      <id value="smart-Encounter-986"/>
      <text>
        <status value="generated"/>
        <div xmlns="http://www.w3.org/1999/xhtml">2011-04-05: ambulatory encounter</div>
      </text>
      <status value="finished"/>
      <class value="ambulatory"/>
      <patient>
        <reference value="Patient/smart-7777702"/>
      </patient>
      <period>
       <start value="2011-04-05"/>
       <end value="2011-04-05"/>
      </period>
    </Encounter>
  
  </resource>
  <request>
    <method value="PUT"/>
    <url value="Encounter/smart-Encounter-986"/>
  </request>
</entry>
  <entry>
  <resource>
    
    
    <Encounter>
      <meta>
          <tag>
              <system value="https://smarthealthit.org/tags"/>
              <code value="smart-8-2017"/>
          </tag>
      </meta>
      <id value="smart-Encounter-987"/>
      <text>
        <status value="generated"/>
        <div xmlns="http://www.w3.org/1999/xhtml">2011-05-11: ambulatory encounter</div>
      </text>
      <status value="finished"/>
      <class value="ambulatory"/>
      <patient>
        <reference value="Patient/smart-7777702"/>
      </patient>
      <period>
       <start value="2011-05-11"/>
       <end value="2011-05-11"/>
      </period>
    </Encounter>
  
  </resource>
  <request>
    <method value="PUT"/>
    <url value="Encounter/smart-Encounter-987"/>
  </request>
</entry>
  <entry>
  <resource>
    
    
    <Encounter>
      <meta>
          <tag>
              <system value="https://smarthealthit.org/tags"/>
              <code value="smart-8-2017"/>
          </tag>
      </meta>
      <id value="smart-Encounter-988"/>
      <text>
        <status value="generated"/>
        <div xmlns="http://www.w3.org/1999/xhtml">2011-06-17: ambulatory encounter</div>
      </text>
      <status value="finished"/>
      <class value="ambulatory"/>
      <patient>
        <reference value="Patient/smart-7777702"/>
      </patient>
      <period>
       <start value="2011-06-17"/>
       <end value="2011-06-17"/>
      </period>
    </Encounter>
  
  </resource>
  <request>
    <method value="PUT"/>
    <url value="Encounter/smart-Encounter-988"/>
  </request>
</entry>
  <entry>
  <resource>
    
    
    <Encounter>
      <meta>
          <tag>
              <system value="https://smarthealthit.org/tags"/>
              <code value="smart-8-2017"/>
          </tag>
      </meta>
      <id value="smart-Encounter-989"/>
      <text>
        <status value="generated"/>
        <div xmlns="http://www.w3.org/1999/xhtml">2011-07-23: ambulatory encounter</div>
      </text>
      <status value="finished"/>
      <class value="ambulatory"/>
      <patient>
        <reference value="Patient/smart-7777702"/>
      </patient>
      <period>
       <start value="2011-07-23"/>
       <end value="2011-07-23"/>
      </period>
    </Encounter>
  
  </resource>
  <request>
    <method value="PUT"/>
    <url value="Encounter/smart-Encounter-989"/>
  </request>
</entry>
  <entry>
  <resource>
    
    
    <Encounter>
      <meta>
          <tag>
              <system value="https://smarthealthit.org/tags"/>
              <code value="smart-8-2017"/>
          </tag>
      </meta>
      <id value="smart-Encounter-990"/>
      <text>
        <status value="generated"/>
        <div xmlns="http://www.w3.org/1999/xhtml">2011-08-29: ambulatory encounter</div>
      </text>
      <status value="finished"/>
      <class value="ambulatory"/>
      <patient>
        <reference value="Patient/smart-7777702"/>
      </patient>
      <period>
       <start value="2011-08-29"/>
       <end value="2011-08-29"/>
      </period>
    </Encounter>
  
  </resource>
  <request>
    <method value="PUT"/>
    <url value="Encounter/smart-Encounter-990"/>
  </request>
</entry>
  <entry>
  <resource>
    
    
    <Encounter>
      <meta>
          <tag>
              <system value="https://smarthealthit.org/tags"/>
              <code value="smart-8-2017"/>
          </tag>
      </meta>
      <id value="smart-Encounter-991"/>
      <text>
        <status value="generated"/>
        <div xmlns="http://www.w3.org/1999/xhtml">2011-10-04: ambulatory encounter</div>
      </text>
      <status value="finished"/>
      <class value="ambulatory"/>
      <patient>
        <reference value="Patient/smart-7777702"/>
      </patient>
      <period>
       <start value="2011-10-04"/>
       <end value="2011-10-04"/>
      </period>
    </Encounter>
  
  </resource>
  <request>
    <method value="PUT"/>
    <url value="Encounter/smart-Encounter-991"/>
  </request>
</entry>
  <entry>
  <resource>
    
    
    <Encounter>
      <meta>
          <tag>
              <system value="https://smarthealthit.org/tags"/>
              <code value="smart-8-2017"/>
          </tag>
      </meta>
      <id value="smart-Encounter-992"/>
      <text>
        <status value="generated"/>
        <div xmlns="http://www.w3.org/1999/xhtml">2011-11-10: ambulatory encounter</div>
      </text>
      <status value="finished"/>
      <class value="ambulatory"/>
      <patient>
        <reference value="Patient/smart-7777702"/>
      </patient>
      <period>
       <start value="2011-11-10"/>
       <end value="2011-11-10"/>
      </period>
    </Encounter>
  
  </resource>
  <request>
    <method value="PUT"/>
    <url value="Encounter/smart-Encounter-992"/>
  </request>
</entry>
  <entry>
  <resource>
    
    
    <Encounter>
      <meta>
          <tag>
              <system value="https://smarthealthit.org/tags"/>
              <code value="smart-8-2017"/>
          </tag>
      </meta>
      <id value="smart-Encounter-993"/>
      <text>
        <status value="generated"/>
        <div xmlns="http://www.w3.org/1999/xhtml">2011-12-16: ambulatory encounter</div>
      </text>
      <status value="finished"/>
      <class value="ambulatory"/>
      <patient>
        <reference value="Patient/smart-7777702"/>
      </patient>
      <period>
       <start value="2011-12-16"/>
       <end value="2011-12-16"/>
      </period>
    </Encounter>
  
  </resource>
  <request>
    <method value="PUT"/>
    <url value="Encounter/smart-Encounter-993"/>
  </request>
</entry>
  <entry>
  <resource>
    
    
    <Encounter>
      <meta>
          <tag>
              <system value="https://smarthealthit.org/tags"/>
              <code value="smart-8-2017"/>
          </tag>
      </meta>
      <id value="smart-Encounter-994"/>
      <text>
        <status value="generated"/>
        <div xmlns="http://www.w3.org/1999/xhtml">2012-05-10: ambulatory encounter</div>
      </text>
      <status value="finished"/>
      <class value="ambulatory"/>
      <patient>
        <reference value="Patient/smart-7777702"/>
      </patient>
      <period>
       <start value="2012-05-10"/>
       <end value="2012-05-10"/>
      </period>
    </Encounter>
  
  </resource>
  <request>
    <method value="PUT"/>
    <url value="Encounter/smart-Encounter-994"/>
  </request>
</entry>
  <entry>
  <resource>
    
    
    <Encounter>
      <meta>
          <tag>
              <system value="https://smarthealthit.org/tags"/>
              <code value="smart-8-2017"/>
          </tag>
      </meta>
      <id value="smart-Encounter-995"/>
      <text>
        <status value="generated"/>
        <div xmlns="http://www.w3.org/1999/xhtml">2012-10-03: ambulatory encounter</div>
      </text>
      <status value="finished"/>
      <class value="ambulatory"/>
      <patient>
        <reference value="Patient/smart-7777702"/>
      </patient>
      <period>
       <start value="2012-10-03"/>
       <end value="2012-10-03"/>
      </period>
    </Encounter>
  
  </resource>
  <request>
    <method value="PUT"/>
    <url value="Encounter/smart-Encounter-995"/>
  </request>
</entry>
  <entry>
  <resource>
    
    
    <Encounter>
      <meta>
          <tag>
              <system value="https://smarthealthit.org/tags"/>
              <code value="smart-8-2017"/>
          </tag>
      </meta>
      <id value="smart-Encounter-996"/>
      <text>
        <status value="generated"/>
        <div xmlns="http://www.w3.org/1999/xhtml">2013-02-26: ambulatory encounter</div>
      </text>
      <status value="finished"/>
      <class value="ambulatory"/>
      <patient>
        <reference value="Patient/smart-7777702"/>
      </patient>
      <period>
       <start value="2013-02-26"/>
       <end value="2013-02-26"/>
      </period>
    </Encounter>
  
  </resource>
  <request>
    <method value="PUT"/>
    <url value="Encounter/smart-Encounter-996"/>
  </request>
</entry>
<entry>
  <resource>
    
    
  <Observation>
    <meta>
        <tag>
            <system value="https://smarthealthit.org/tags"/>
            <code value="smart-8-2017"/>
        </tag>
    </meta>
  <id value="smart-Observation-984-height"/>
    <text>
      <status value="generated"/>
      <div xmlns="http://www.w3.org/1999/xhtml">2010-10-04: height = 78.5 cm</div>
    </text>
    <category>
      <coding>
          <system value="http://hl7.org/fhir/observation-category"/>
          <code value="vital-signs"/>
          <display value="Vital Signs"/>
      </coding>
      <text value="Vital Signs"/>
    </category>
    <code>
      <coding>
        <system value="http://loinc.org"/>
        <code value="8302-2"/>
        <display value="height"/>
      </coding>
      <text value="height"/>
    </code>
    <valueQuantity>
      <value value="78.5"/>
      <unit value="cm"/>
      <system value="http://unitsofmeasure.org" />
      <code value="cm"/>
    </valueQuantity>
    
    <effectiveDateTime value="2010-10-04"/>
    <status value="final"/>
    <subject>
      <reference value="Patient/smart-7777702"/>
    </subject>
    <encounter>
      <reference value="Encounter/smart-Encounter-984"/>
    </encounter>
    
  </Observation>
  
  </resource>
  <request>
    <method value="PUT"/>
    <url value="Observation/smart-Observation-984-height"/>
  </request>
</entry>
<entry>
  <resource>
    
    
  <Observation>
    <meta>
        <tag>
            <system value="https://smarthealthit.org/tags"/>
            <code value="smart-8-2017"/>
        </tag>
    </meta>
  <id value="smart-Observation-984-weight"/>
    <text>
      <status value="generated"/>
      <div xmlns="http://www.w3.org/1999/xhtml">2010-10-04: weight = 9.8 kg</div>
    </text>
    <category>
      <coding>
          <system value="http://hl7.org/fhir/observation-category"/>
          <code value="vital-signs"/>
          <display value="Vital Signs"/>
      </coding>
      <text value="Vital Signs"/>
    </category>
    <code>
      <coding>
        <system value="http://loinc.org"/>
        <code value="3141-9"/>
        <display value="weight"/>
      </coding>
      <text value="weight"/>
    </code>
    <valueQuantity>
      <value value="9.8"/>
      <unit value="kg"/>
      <system value="http://unitsofmeasure.org" />
      <code value="kg"/>
    </valueQuantity>
    
    <effectiveDateTime value="2010-10-04"/>
    <status value="final"/>
    <subject>
      <reference value="Patient/smart-7777702"/>
    </subject>
    <encounter>
      <reference value="Encounter/smart-Encounter-984"/>
    </encounter>
    
  </Observation>
  
  </resource>
  <request>
    <method value="PUT"/>
    <url value="Observation/smart-Observation-984-weight"/>
  </request>
</entry>
<entry>
  <resource>
    
    
  <Observation>
    <meta>
        <tag>
            <system value="https://smarthealthit.org/tags"/>
            <code value="smart-8-2017"/>
        </tag>
    </meta>
  <id value="smart-Observation-985-height"/>
    <text>
      <status value="generated"/>
      <div xmlns="http://www.w3.org/1999/xhtml">2010-11-10: height = 78.5 cm</div>
    </text>
    <category>
      <coding>
          <system value="http://hl7.org/fhir/observation-category"/>
          <code value="vital-signs"/>
          <display value="Vital Signs"/>
      </coding>
      <text value="Vital Signs"/>
    </category>
    <code>
      <coding>
        <system value="http://loinc.org"/>
        <code value="8302-2"/>
        <display value="height"/>
      </coding>
      <text value="height"/>
    </code>
    <valueQuantity>
      <value value="78.5"/>
      <unit value="cm"/>
      <system value="http://unitsofmeasure.org" />
      <code value="cm"/>
    </valueQuantity>
    
    <effectiveDateTime value="2010-11-10"/>
    <status value="final"/>
    <subject>
      <reference value="Patient/smart-7777702"/>
    </subject>
    <encounter>
      <reference value="Encounter/smart-Encounter-985"/>
    </encounter>
    
  </Observation>
  
  </resource>
  <request>
    <method value="PUT"/>
    <url value="Observation/smart-Observation-985-height"/>
  </request>
</entry>
<entry>
  <resource>
    
    
  <Observation>
    <meta>
        <tag>
            <system value="https://smarthealthit.org/tags"/>
            <code value="smart-8-2017"/>
        </tag>
    </meta>
  <id value="smart-Observation-985-weight"/>
    <text>
      <status value="generated"/>
      <div xmlns="http://www.w3.org/1999/xhtml">2010-11-10: weight = 9.8 kg</div>
    </text>
    <category>
      <coding>
          <system value="http://hl7.org/fhir/observation-category"/>
          <code value="vital-signs"/>
          <display value="Vital Signs"/>
      </coding>
      <text value="Vital Signs"/>
    </category>
    <code>
      <coding>
        <system value="http://loinc.org"/>
        <code value="3141-9"/>
        <display value="weight"/>
      </coding>
      <text value="weight"/>
    </code>
    <valueQuantity>
      <value value="9.8"/>
      <unit value="kg"/>
      <system value="http://unitsofmeasure.org" />
      <code value="kg"/>
    </valueQuantity>
    
    <effectiveDateTime value="2010-11-10"/>
    <status value="final"/>
    <subject>
      <reference value="Patient/smart-7777702"/>
    </subject>
    <encounter>
      <reference value="Encounter/smart-Encounter-985"/>
    </encounter>
    
  </Observation>
  
  </resource>
  <request>
    <method value="PUT"/>
    <url value="Observation/smart-Observation-985-weight"/>
  </request>
</entry>
<entry>
  <resource>
    
    
  <Observation>
    <meta>
        <tag>
            <system value="https://smarthealthit.org/tags"/>
            <code value="smart-8-2017"/>
        </tag>
    </meta>
  <id value="smart-Observation-986-height"/>
    <text>
      <status value="generated"/>
      <div xmlns="http://www.w3.org/1999/xhtml">2011-04-05: height = 82.3 cm</div>
    </text>
    <category>
      <coding>
          <system value="http://hl7.org/fhir/observation-category"/>
          <code value="vital-signs"/>
          <display value="Vital Signs"/>
      </coding>
      <text value="Vital Signs"/>
    </category>
    <code>
      <coding>
        <system value="http://loinc.org"/>
        <code value="8302-2"/>
        <display value="height"/>
      </coding>
      <text value="height"/>
    </code>
    <valueQuantity>
      <value value="82.3"/>
      <unit value="cm"/>
      <system value="http://unitsofmeasure.org" />
      <code value="cm"/>
    </valueQuantity>
    
    <effectiveDateTime value="2011-04-05"/>
    <status value="final"/>
    <subject>
      <reference value="Patient/smart-7777702"/>
    </subject>
    <encounter>
      <reference value="Encounter/smart-Encounter-986"/>
    </encounter>
    
  </Observation>
  
  </resource>
  <request>
    <method value="PUT"/>
    <url value="Observation/smart-Observation-986-height"/>
  </request>
</entry>
<entry>
  <resource>
    
    
  <Observation>
    <meta>
        <tag>
            <system value="https://smarthealthit.org/tags"/>
            <code value="smart-8-2017"/>
        </tag>
    </meta>
  <id value="smart-Observation-986-weight"/>
    <text>
      <status value="generated"/>
      <div xmlns="http://www.w3.org/1999/xhtml">2011-04-05: weight = 10.9 kg</div>
    </text>
    <category>
      <coding>
          <system value="http://hl7.org/fhir/observation-category"/>
          <code value="vital-signs"/>
          <display value="Vital Signs"/>
      </coding>
      <text value="Vital Signs"/>
    </category>
    <code>
      <coding>
        <system value="http://loinc.org"/>
        <code value="3141-9"/>
        <display value="weight"/>
      </coding>
      <text value="weight"/>
    </code>
    <valueQuantity>
      <value value="10.9"/>
      <unit value="kg"/>
      <system value="http://unitsofmeasure.org" />
      <code value="kg"/>
    </valueQuantity>
    
    <effectiveDateTime value="2011-04-05"/>
    <status value="final"/>
    <subject>
      <reference value="Patient/smart-7777702"/>
    </subject>
    <encounter>
      <reference value="Encounter/smart-Encounter-986"/>
    </encounter>
    
  </Observation>
  
  </resource>
  <request>
    <method value="PUT"/>
    <url value="Observation/smart-Observation-986-weight"/>
  </request>
</entry>
<entry>
  <resource>
    
    
  <Observation>
    <meta>
        <tag>
            <system value="https://smarthealthit.org/tags"/>
            <code value="smart-8-2017"/>
        </tag>
    </meta>
  <id value="smart-Observation-987-height"/>
    <text>
      <status value="generated"/>
      <div xmlns="http://www.w3.org/1999/xhtml">2011-05-11: height = 82.3 cm</div>
    </text>
    <category>
      <coding>
          <system value="http://hl7.org/fhir/observation-category"/>
          <code value="vital-signs"/>
          <display value="Vital Signs"/>
      </coding>
      <text value="Vital Signs"/>
    </category>
    <code>
      <coding>
        <system value="http://loinc.org"/>
        <code value="8302-2"/>
        <display value="height"/>
      </coding>
      <text value="height"/>
    </code>
    <valueQuantity>
      <value value="82.3"/>
      <unit value="cm"/>
      <system value="http://unitsofmeasure.org" />
      <code value="cm"/>
    </valueQuantity>
    
    <effectiveDateTime value="2011-05-11"/>
    <status value="final"/>
    <subject>
      <reference value="Patient/smart-7777702"/>
    </subject>
    <encounter>
      <reference value="Encounter/smart-Encounter-987"/>
    </encounter>
    
  </Observation>
  
  </resource>
  <request>
    <method value="PUT"/>
    <url value="Observation/smart-Observation-987-height"/>
  </request>
</entry>
<entry>
  <resource>
    
    
  <Observation>
    <meta>
        <tag>
            <system value="https://smarthealthit.org/tags"/>
            <code value="smart-8-2017"/>
        </tag>
    </meta>
  <id value="smart-Observation-987-weight"/>
    <text>
      <status value="generated"/>
      <div xmlns="http://www.w3.org/1999/xhtml">2011-05-11: weight = 11.2 kg</div>
    </text>
    <category>
      <coding>
          <system value="http://hl7.org/fhir/observation-category"/>
          <code value="vital-signs"/>
          <display value="Vital Signs"/>
      </coding>
      <text value="Vital Signs"/>
    </category>
    <code>
      <coding>
        <system value="http://loinc.org"/>
        <code value="3141-9"/>
        <display value="weight"/>
      </coding>
      <text value="weight"/>
    </code>
    <valueQuantity>
      <value value="11.2"/>
      <unit value="kg"/>
      <system value="http://unitsofmeasure.org" />
      <code value="kg"/>
    </valueQuantity>
    
    <effectiveDateTime value="2011-05-11"/>
    <status value="final"/>
    <subject>
      <reference value="Patient/smart-7777702"/>
    </subject>
    <encounter>
      <reference value="Encounter/smart-Encounter-987"/>
    </encounter>
    
  </Observation>
  
  </resource>
  <request>
    <method value="PUT"/>
    <url value="Observation/smart-Observation-987-weight"/>
  </request>
</entry>
<entry>
  <resource>
    
    
  <Observation>
    <meta>
        <tag>
            <system value="https://smarthealthit.org/tags"/>
            <code value="smart-8-2017"/>
        </tag>
    </meta>
  <id value="smart-Observation-988-height"/>
    <text>
      <status value="generated"/>
      <div xmlns="http://www.w3.org/1999/xhtml">2011-06-17: height = 84.0 cm</div>
    </text>
    <category>
      <coding>
          <system value="http://hl7.org/fhir/observation-category"/>
          <code value="vital-signs"/>
          <display value="Vital Signs"/>
      </coding>
      <text value="Vital Signs"/>
    </category>
    <code>
      <coding>
        <system value="http://loinc.org"/>
        <code value="8302-2"/>
        <display value="height"/>
      </coding>
      <text value="height"/>
    </code>
    <valueQuantity>
      <value value="84.0"/>
      <unit value="cm"/>
      <system value="http://unitsofmeasure.org" />
      <code value="cm"/>
    </valueQuantity>
    
    <effectiveDateTime value="2011-06-17"/>
    <status value="final"/>
    <subject>
      <reference value="Patient/smart-7777702"/>
    </subject>
    <encounter>
      <reference value="Encounter/smart-Encounter-988"/>
    </encounter>
    
  </Observation>
  
  </resource>
  <request>
    <method value="PUT"/>
    <url value="Observation/smart-Observation-988-height"/>
  </request>
</entry>
<entry>
  <resource>
    
    
  <Observation>
    <meta>
        <tag>
            <system value="https://smarthealthit.org/tags"/>
            <code value="smart-8-2017"/>
        </tag>
    </meta>
  <id value="smart-Observation-988-weight"/>
    <text>
      <status value="generated"/>
      <div xmlns="http://www.w3.org/1999/xhtml">2011-06-17: weight = 11.2 kg</div>
    </text>
    <category>
      <coding>
          <system value="http://hl7.org/fhir/observation-category"/>
          <code value="vital-signs"/>
          <display value="Vital Signs"/>
      </coding>
      <text value="Vital Signs"/>
    </category>
    <code>
      <coding>
        <system value="http://loinc.org"/>
        <code value="3141-9"/>
        <display value="weight"/>
      </coding>
      <text value="weight"/>
    </code>
    <valueQuantity>
      <value value="11.2"/>
      <unit value="kg"/>
      <system value="http://unitsofmeasure.org" />
      <code value="kg"/>
    </valueQuantity>
    
    <effectiveDateTime value="2011-06-17"/>
    <status value="final"/>
    <subject>
      <reference value="Patient/smart-7777702"/>
    </subject>
    <encounter>
      <reference value="Encounter/smart-Encounter-988"/>
    </encounter>
    
  </Observation>
  
  </resource>
  <request>
    <method value="PUT"/>
    <url value="Observation/smart-Observation-988-weight"/>
  </request>
</entry>
<entry>
  <resource>
    
    
  <Observation>
    <meta>
        <tag>
            <system value="https://smarthealthit.org/tags"/>
            <code value="smart-8-2017"/>
        </tag>
    </meta>
  <id value="smart-Observation-989-height"/>
    <text>
      <status value="generated"/>
      <div xmlns="http://www.w3.org/1999/xhtml">2011-07-23: height = 83.5 cm</div>
    </text>
    <category>
      <coding>
          <system value="http://hl7.org/fhir/observation-category"/>
          <code value="vital-signs"/>
          <display value="Vital Signs"/>
      </coding>
      <text value="Vital Signs"/>
    </category>
    <code>
      <coding>
        <system value="http://loinc.org"/>
        <code value="8302-2"/>
        <display value="height"/>
      </coding>
      <text value="height"/>
    </code>
    <valueQuantity>
      <value value="83.5"/>
      <unit value="cm"/>
      <system value="http://unitsofmeasure.org" />
      <code value="cm"/>
    </valueQuantity>
    
    <effectiveDateTime value="2011-07-23"/>
    <status value="final"/>
    <subject>
      <reference value="Patient/smart-7777702"/>
    </subject>
    <encounter>
      <reference value="Encounter/smart-Encounter-989"/>
    </encounter>
    
  </Observation>
  
  </resource>
  <request>
    <method value="PUT"/>
    <url value="Observation/smart-Observation-989-height"/>
  </request>
</entry>
<entry>
  <resource>
    
    
  <Observation>
    <meta>
        <tag>
            <system value="https://smarthealthit.org/tags"/>
            <code value="smart-8-2017"/>
        </tag>
    </meta>
  <id value="smart-Observation-989-weight"/>
    <text>
      <status value="generated"/>
      <div xmlns="http://www.w3.org/1999/xhtml">2011-07-23: weight = 11.7 kg</div>
    </text>
    <category>
      <coding>
          <system value="http://hl7.org/fhir/observation-category"/>
          <code value="vital-signs"/>
          <display value="Vital Signs"/>
      </coding>
      <text value="Vital Signs"/>
    </category>
    <code>
      <coding>
        <system value="http://loinc.org"/>
        <code value="3141-9"/>
        <display value="weight"/>
      </coding>
      <text value="weight"/>
    </code>
    <valueQuantity>
      <value value="11.7"/>
      <unit value="kg"/>
      <system value="http://unitsofmeasure.org" />
      <code value="kg"/>
    </valueQuantity>
    
    <effectiveDateTime value="2011-07-23"/>
    <status value="final"/>
    <subject>
      <reference value="Patient/smart-7777702"/>
    </subject>
    <encounter>
      <reference value="Encounter/smart-Encounter-989"/>
    </encounter>
    
  </Observation>
  
  </resource>
  <request>
    <method value="PUT"/>
    <url value="Observation/smart-Observation-989-weight"/>
  </request>
</entry>
<entry>
  <resource>
    
    
  <Observation>
    <meta>
        <tag>
            <system value="https://smarthealthit.org/tags"/>
            <code value="smart-8-2017"/>
        </tag>
    </meta>
  <id value="smart-Observation-990-height"/>
    <text>
      <status value="generated"/>
      <div xmlns="http://www.w3.org/1999/xhtml">2011-08-29: height = 85.5 cm</div>
    </text>
    <category>
      <coding>
          <system value="http://hl7.org/fhir/observation-category"/>
          <code value="vital-signs"/>
          <display value="Vital Signs"/>
      </coding>
      <text value="Vital Signs"/>
    </category>
    <code>
      <coding>
        <system value="http://loinc.org"/>
        <code value="8302-2"/>
        <display value="height"/>
      </coding>
      <text value="height"/>
    </code>
    <valueQuantity>
      <value value="85.5"/>
      <unit value="cm"/>
      <system value="http://unitsofmeasure.org" />
      <code value="cm"/>
    </valueQuantity>
    
    <effectiveDateTime value="2011-08-29"/>
    <status value="final"/>
    <subject>
      <reference value="Patient/smart-7777702"/>
    </subject>
    <encounter>
      <reference value="Encounter/smart-Encounter-990"/>
    </encounter>
    
  </Observation>
  
  </resource>
  <request>
    <method value="PUT"/>
    <url value="Observation/smart-Observation-990-height"/>
  </request>
</entry>
<entry>
  <resource>
    
    
  <Observation>
    <meta>
        <tag>
            <system value="https://smarthealthit.org/tags"/>
            <code value="smart-8-2017"/>
        </tag>
    </meta>
  <id value="smart-Observation-990-weight"/>
    <text>
      <status value="generated"/>
      <div xmlns="http://www.w3.org/1999/xhtml">2011-08-29: weight = 11.0 kg</div>
    </text>
    <category>
      <coding>
          <system value="http://hl7.org/fhir/observation-category"/>
          <code value="vital-signs"/>
          <display value="Vital Signs"/>
      </coding>
      <text value="Vital Signs"/>
    </category>
    <code>
      <coding>
        <system value="http://loinc.org"/>
        <code value="3141-9"/>
        <display value="weight"/>
      </coding>
      <text value="weight"/>
    </code>
    <valueQuantity>
      <value value="11.0"/>
      <unit value="kg"/>
      <system value="http://unitsofmeasure.org" />
      <code value="kg"/>
    </valueQuantity>
    
    <effectiveDateTime value="2011-08-29"/>
    <status value="final"/>
    <subject>
      <reference value="Patient/smart-7777702"/>
    </subject>
    <encounter>
      <reference value="Encounter/smart-Encounter-990"/>
    </encounter>
    
  </Observation>
  
  </resource>
  <request>
    <method value="PUT"/>
    <url value="Observation/smart-Observation-990-weight"/>
  </request>
</entry>
<entry>
  <resource>
    
    
  <Observation>
    <meta>
        <tag>
            <system value="https://smarthealthit.org/tags"/>
            <code value="smart-8-2017"/>
        </tag>
    </meta>
  <id value="smart-Observation-991-height"/>
    <text>
      <status value="generated"/>
      <div xmlns="http://www.w3.org/1999/xhtml">2011-10-04: height = 86.3 cm</div>
    </text>
    <category>
      <coding>
          <system value="http://hl7.org/fhir/observation-category"/>
          <code value="vital-signs"/>
          <display value="Vital Signs"/>
      </coding>
      <text value="Vital Signs"/>
    </category>
    <code>
      <coding>
        <system value="http://loinc.org"/>
        <code value="8302-2"/>
        <display value="height"/>
      </coding>
      <text value="height"/>
    </code>
    <valueQuantity>
      <value value="86.3"/>
      <unit value="cm"/>
      <system value="http://unitsofmeasure.org" />
      <code value="cm"/>
    </valueQuantity>
    
    <effectiveDateTime value="2011-10-04"/>
    <status value="final"/>
    <subject>
      <reference value="Patient/smart-7777702"/>
    </subject>
    <encounter>
      <reference value="Encounter/smart-Encounter-991"/>
    </encounter>
    
  </Observation>
  
  </resource>
  <request>
    <method value="PUT"/>
    <url value="Observation/smart-Observation-991-height"/>
  </request>
</entry>
<entry>
  <resource>
    
    
  <Observation>
    <meta>
        <tag>
            <system value="https://smarthealthit.org/tags"/>
            <code value="smart-8-2017"/>
        </tag>
    </meta>
  <id value="smart-Observation-991-weight"/>
    <text>
      <status value="generated"/>
      <div xmlns="http://www.w3.org/1999/xhtml">2011-10-04: weight = 11.3 kg</div>
    </text>
    <category>
      <coding>
          <system value="http://hl7.org/fhir/observation-category"/>
          <code value="vital-signs"/>
          <display value="Vital Signs"/>
      </coding>
      <text value="Vital Signs"/>
    </category>
    <code>
      <coding>
        <system value="http://loinc.org"/>
        <code value="3141-9"/>
        <display value="weight"/>
      </coding>
      <text value="weight"/>
    </code>
    <valueQuantity>
      <value value="11.3"/>
      <unit value="kg"/>
      <system value="http://unitsofmeasure.org" />
      <code value="kg"/>
    </valueQuantity>
    
    <effectiveDateTime value="2011-10-04"/>
    <status value="final"/>
    <subject>
      <reference value="Patient/smart-7777702"/>
    </subject>
    <encounter>
      <reference value="Encounter/smart-Encounter-991"/>
    </encounter>
    
  </Observation>
  
  </resource>
  <request>
    <method value="PUT"/>
    <url value="Observation/smart-Observation-991-weight"/>
  </request>
</entry>
<entry>
  <resource>
    
    
  <Observation>
    <meta>
        <tag>
            <system value="https://smarthealthit.org/tags"/>
            <code value="smart-8-2017"/>
        </tag>
    </meta>
  <id value="smart-Observation-992-height"/>
    <text>
      <status value="generated"/>
      <div xmlns="http://www.w3.org/1999/xhtml">2011-11-10: height = 86.3 cm</div>
    </text>
    <category>
      <coding>
          <system value="http://hl7.org/fhir/observation-category"/>
          <code value="vital-signs"/>
          <display value="Vital Signs"/>
      </coding>
      <text value="Vital Signs"/>
    </category>
    <code>
      <coding>
        <system value="http://loinc.org"/>
        <code value="8302-2"/>
        <display value="height"/>
      </coding>
      <text value="height"/>
    </code>
    <valueQuantity>
      <value value="86.3"/>
      <unit value="cm"/>
      <system value="http://unitsofmeasure.org" />
      <code value="cm"/>
    </valueQuantity>
    
    <effectiveDateTime value="2011-11-10"/>
    <status value="final"/>
    <subject>
      <reference value="Patient/smart-7777702"/>
    </subject>
    <encounter>
      <reference value="Encounter/smart-Encounter-992"/>
    </encounter>
    
  </Observation>
  
  </resource>
  <request>
    <method value="PUT"/>
    <url value="Observation/smart-Observation-992-height"/>
  </request>
</entry>
<entry>
  <resource>
    
    
  <Observation>
    <meta>
        <tag>
            <system value="https://smarthealthit.org/tags"/>
            <code value="smart-8-2017"/>
        </tag>
    </meta>
  <id value="smart-Observation-992-weight"/>
    <text>
      <status value="generated"/>
      <div xmlns="http://www.w3.org/1999/xhtml">2011-11-10: weight = 11.9 kg</div>
    </text>
    <category>
      <coding>
          <system value="http://hl7.org/fhir/observation-category"/>
          <code value="vital-signs"/>
          <display value="Vital Signs"/>
      </coding>
      <text value="Vital Signs"/>
    </category>
    <code>
      <coding>
        <system value="http://loinc.org"/>
        <code value="3141-9"/>
        <display value="weight"/>
      </coding>
      <text value="weight"/>
    </code>
    <valueQuantity>
      <value value="11.9"/>
      <unit value="kg"/>
      <system value="http://unitsofmeasure.org" />
      <code value="kg"/>
    </valueQuantity>
    
    <effectiveDateTime value="2011-11-10"/>
    <status value="final"/>
    <subject>
      <reference value="Patient/smart-7777702"/>
    </subject>
    <encounter>
      <reference value="Encounter/smart-Encounter-992"/>
    </encounter>
    
  </Observation>
  
  </resource>
  <request>
    <method value="PUT"/>
    <url value="Observation/smart-Observation-992-weight"/>
  </request>
</entry>
<entry>
  <resource>
    
    
  <Observation>
    <meta>
        <tag>
            <system value="https://smarthealthit.org/tags"/>
            <code value="smart-8-2017"/>
        </tag>
    </meta>
  <id value="smart-Observation-993-height"/>
    <text>
      <status value="generated"/>
      <div xmlns="http://www.w3.org/1999/xhtml">2011-12-16: height = 86.7 cm</div>
    </text>
    <category>
      <coding>
          <system value="http://hl7.org/fhir/observation-category"/>
          <code value="vital-signs"/>
          <display value="Vital Signs"/>
      </coding>
      <text value="Vital Signs"/>
    </category>
    <code>
      <coding>
        <system value="http://loinc.org"/>
        <code value="8302-2"/>
        <display value="height"/>
      </coding>
      <text value="height"/>
    </code>
    <valueQuantity>
      <value value="86.7"/>
      <unit value="cm"/>
      <system value="http://unitsofmeasure.org" />
      <code value="cm"/>
    </valueQuantity>
    
    <effectiveDateTime value="2011-12-16"/>
    <status value="final"/>
    <subject>
      <reference value="Patient/smart-7777702"/>
    </subject>
    <encounter>
      <reference value="Encounter/smart-Encounter-993"/>
    </encounter>
    
  </Observation>
  
  </resource>
  <request>
    <method value="PUT"/>
    <url value="Observation/smart-Observation-993-height"/>
  </request>
</entry>
<entry>
  <resource>
    
    
  <Observation>
    <meta>
        <tag>
            <system value="https://smarthealthit.org/tags"/>
            <code value="smart-8-2017"/>
        </tag>
    </meta>
  <id value="smart-Observation-993-weight"/>
    <text>
      <status value="generated"/>
      <div xmlns="http://www.w3.org/1999/xhtml">2011-12-16: weight = 12.0 kg</div>
    </text>
    <category>
      <coding>
          <system value="http://hl7.org/fhir/observation-category"/>
          <code value="vital-signs"/>
          <display value="Vital Signs"/>
      </coding>
      <text value="Vital Signs"/>
    </category>
    <code>
      <coding>
        <system value="http://loinc.org"/>
        <code value="3141-9"/>
        <display value="weight"/>
      </coding>
      <text value="weight"/>
    </code>
    <valueQuantity>
      <value value="12.0"/>
      <unit value="kg"/>
      <system value="http://unitsofmeasure.org" />
      <code value="kg"/>
    </valueQuantity>
    
    <effectiveDateTime value="2011-12-16"/>
    <status value="final"/>
    <subject>
      <reference value="Patient/smart-7777702"/>
    </subject>
    <encounter>
      <reference value="Encounter/smart-Encounter-993"/>
    </encounter>
    
  </Observation>
  
  </resource>
  <request>
    <method value="PUT"/>
    <url value="Observation/smart-Observation-993-weight"/>
  </request>
</entry>
<entry>
  <resource>
    
    
  <Observation>
    <meta>
        <tag>
            <system value="https://smarthealthit.org/tags"/>
            <code value="smart-8-2017"/>
        </tag>
    </meta>
  <id value="smart-Observation-994-height"/>
    <text>
      <status value="generated"/>
      <div xmlns="http://www.w3.org/1999/xhtml">2012-05-10: height = 90.9 cm</div>
    </text>
    <category>
      <coding>
          <system value="http://hl7.org/fhir/observation-category"/>
          <code value="vital-signs"/>
          <display value="Vital Signs"/>
      </coding>
      <text value="Vital Signs"/>
    </category>
    <code>
      <coding>
        <system value="http://loinc.org"/>
        <code value="8302-2"/>
        <display value="height"/>
      </coding>
      <text value="height"/>
    </code>
    <valueQuantity>
      <value value="90.9"/>
      <unit value="cm"/>
      <system value="http://unitsofmeasure.org" />
      <code value="cm"/>
    </valueQuantity>
    
    <effectiveDateTime value="2012-05-10"/>
    <status value="final"/>
    <subject>
      <reference value="Patient/smart-7777702"/>
    </subject>
    <encounter>
      <reference value="Encounter/smart-Encounter-994"/>
    </encounter>
    
  </Observation>
  
  </resource>
  <request>
    <method value="PUT"/>
    <url value="Observation/smart-Observation-994-height"/>
  </request>
</entry>
<entry>
  <resource>
    
    
  <Observation>
    <meta>
        <tag>
            <system value="https://smarthealthit.org/tags"/>
            <code value="smart-8-2017"/>
        </tag>
    </meta>
  <id value="smart-Observation-994-weight"/>
    <text>
      <status value="generated"/>
      <div xmlns="http://www.w3.org/1999/xhtml">2012-05-10: weight = 12.7 kg</div>
    </text>
    <category>
      <coding>
          <system value="http://hl7.org/fhir/observation-category"/>
          <code value="vital-signs"/>
          <display value="Vital Signs"/>
      </coding>
      <text value="Vital Signs"/>
    </category>
    <code>
      <coding>
        <system value="http://loinc.org"/>
        <code value="3141-9"/>
        <display value="weight"/>
      </coding>
      <text value="weight"/>
    </code>
    <valueQuantity>
      <value value="12.7"/>
      <unit value="kg"/>
      <system value="http://unitsofmeasure.org" />
      <code value="kg"/>
    </valueQuantity>
    
    <effectiveDateTime value="2012-05-10"/>
    <status value="final"/>
    <subject>
      <reference value="Patient/smart-7777702"/>
    </subject>
    <encounter>
      <reference value="Encounter/smart-Encounter-994"/>
    </encounter>
    
  </Observation>
  
  </resource>
  <request>
    <method value="PUT"/>
    <url value="Observation/smart-Observation-994-weight"/>
  </request>
</entry>
<entry>
  <resource>
    
    
  <Observation>
    <meta>
        <tag>
            <system value="https://smarthealthit.org/tags"/>
            <code value="smart-8-2017"/>
        </tag>
    </meta>
  <id value="smart-Observation-995-height"/>
    <text>
      <status value="generated"/>
      <div xmlns="http://www.w3.org/1999/xhtml">2012-10-03: height = 95.4 cm</div>
    </text>
    <category>
      <coding>
          <system value="http://hl7.org/fhir/observation-category"/>
          <code value="vital-signs"/>
          <display value="Vital Signs"/>
      </coding>
      <text value="Vital Signs"/>
    </category>
    <code>
      <coding>
        <system value="http://loinc.org"/>
        <code value="8302-2"/>
        <display value="height"/>
      </coding>
      <text value="height"/>
    </code>
    <valueQuantity>
      <value value="95.4"/>
      <unit value="cm"/>
      <system value="http://unitsofmeasure.org" />
      <code value="cm"/>
    </valueQuantity>
    
    <effectiveDateTime value="2012-10-03"/>
    <status value="final"/>
    <subject>
      <reference value="Patient/smart-7777702"/>
    </subject>
    <encounter>
      <reference value="Encounter/smart-Encounter-995"/>
    </encounter>
    
  </Observation>
  
  </resource>
  <request>
    <method value="PUT"/>
    <url value="Observation/smart-Observation-995-height"/>
  </request>
</entry>
<entry>
  <resource>
    
    
  <Observation>
    <meta>
        <tag>
            <system value="https://smarthealthit.org/tags"/>
            <code value="smart-8-2017"/>
        </tag>
    </meta>
  <id value="smart-Observation-995-weight"/>
    <text>
      <status value="generated"/>
      <div xmlns="http://www.w3.org/1999/xhtml">2012-10-03: weight = 13.2 kg</div>
    </text>
    <category>
      <coding>
          <system value="http://hl7.org/fhir/observation-category"/>
          <code value="vital-signs"/>
          <display value="Vital Signs"/>
      </coding>
      <text value="Vital Signs"/>
    </category>
    <code>
      <coding>
        <system value="http://loinc.org"/>
        <code value="3141-9"/>
        <display value="weight"/>
      </coding>
      <text value="weight"/>
    </code>
    <valueQuantity>
      <value value="13.2"/>
      <unit value="kg"/>
      <system value="http://unitsofmeasure.org" />
      <code value="kg"/>
    </valueQuantity>
    
    <effectiveDateTime value="2012-10-03"/>
    <status value="final"/>
    <subject>
      <reference value="Patient/smart-7777702"/>
    </subject>
    <encounter>
      <reference value="Encounter/smart-Encounter-995"/>
    </encounter>
    
  </Observation>
  
  </resource>
  <request>
    <method value="PUT"/>
    <url value="Observation/smart-Observation-995-weight"/>
  </request>
</entry>
<entry>
  <resource>
    
    
  <Observation>
    <meta>
        <tag>
            <system value="https://smarthealthit.org/tags"/>
            <code value="smart-8-2017"/>
        </tag>
    </meta>
  <id value="smart-Observation-996-height"/>
    <text>
      <status value="generated"/>
      <div xmlns="http://www.w3.org/1999/xhtml">2013-02-26: height = 98.8 cm</div>
    </text>
    <category>
      <coding>
          <system value="http://hl7.org/fhir/observation-category"/>
          <code value="vital-signs"/>
          <display value="Vital Signs"/>
      </coding>
      <text value="Vital Signs"/>
    </category>
    <code>
      <coding>
        <system value="http://loinc.org"/>
        <code value="8302-2"/>
        <display value="height"/>
      </coding>
      <text value="height"/>
    </code>
    <valueQuantity>
      <value value="98.8"/>
      <unit value="cm"/>
      <system value="http://unitsofmeasure.org" />
      <code value="cm"/>
    </valueQuantity>
    
    <effectiveDateTime value="2013-02-26"/>
    <status value="final"/>
    <subject>
      <reference value="Patient/smart-7777702"/>
    </subject>
    <encounter>
      <reference value="Encounter/smart-Encounter-996"/>
    </encounter>
    
  </Observation>
  
  </resource>
  <request>
    <method value="PUT"/>
    <url value="Observation/smart-Observation-996-height"/>
  </request>
</entry>
<entry>
  <resource>
    
    
  <Observation>
    <meta>
        <tag>
            <system value="https://smarthealthit.org/tags"/>
            <code value="smart-8-2017"/>
        </tag>
    </meta>
  <id value="smart-Observation-996-weight"/>
    <text>
      <status value="generated"/>
      <div xmlns="http://www.w3.org/1999/xhtml">2013-02-26: weight = 14.4 kg</div>
    </text>
    <category>
      <coding>
          <system value="http://hl7.org/fhir/observation-category"/>
          <code value="vital-signs"/>
          <display value="Vital Signs"/>
      </coding>
      <text value="Vital Signs"/>
    </category>
    <code>
      <coding>
        <system value="http://loinc.org"/>
        <code value="3141-9"/>
        <display value="weight"/>
      </coding>
      <text value="weight"/>
    </code>
    <valueQuantity>
      <value value="14.4"/>
      <unit value="kg"/>
      <system value="http://unitsofmeasure.org" />
      <code value="kg"/>
    </valueQuantity>
    
    <effectiveDateTime value="2013-02-26"/>
    <status value="final"/>
    <subject>
      <reference value="Patient/smart-7777702"/>
    </subject>
    <encounter>
      <reference value="Encounter/smart-Encounter-996"/>
    </encounter>
    
  </Observation>
  
  </resource>
  <request>
    <method value="PUT"/>
    <url value="Observation/smart-Observation-996-weight"/>
  </request>
</entry>
  <entry>
  <resource>
    
    
    <FamilyMemberHistory>
      <meta>
          <tag>
              <system value="https://smarthealthit.org/tags"/>
              <code value="smart-8-2017"/>
          </tag>
      </meta>
  <id value="smart-FamilyMemberHistory-9"/>
      <extension url="http://fhir-registry.smarthealthit.org/StructureDefinition/family-history#height">
        <valueQuantity>
          <value value="177"/>
          <unit value="centimeters"/>
          <system value="http://unitsofmeasure.org"/>
          <code value="cm"/>
        </valueQuantity>
      </extension>
      
      <text>
        <status value="generated"/>
        <div xmlns="http://www.w3.org/1999/xhtml">Data on patient's Father</div>
      </text>
      <patient>
         <reference value="Patient/smart-7777702"/>
      </patient>
        <relationship>
          <coding>
            <system value="http://hl7.org/fhir/v3/RoleCode"/>
            <code value="FTH"/>
            <display value="father"/>
          </coding>
        </relationship>
    </FamilyMemberHistory>
  
  </resource>
  <request>
    <method value="PUT"/>
    <url value="FamilyMemberHistory/smart-FamilyMemberHistory-9"/>
  </request>
</entry>
  <entry>
  <resource>
    
    
    <FamilyMemberHistory>
      <meta>
          <tag>
              <system value="https://smarthealthit.org/tags"/>
              <code value="smart-8-2017"/>
          </tag>
      </meta>
  <id value="smart-FamilyMemberHistory-10"/>
      <extension url="http://fhir-registry.smarthealthit.org/StructureDefinition/family-history#height">
        <valueQuantity>
          <value value="164.5"/>
          <unit value="centimeters"/>
          <system value="http://unitsofmeasure.org"/>
          <code value="cm"/>
        </valueQuantity>
      </extension>
      
      <text>
        <status value="generated"/>
        <div xmlns="http://www.w3.org/1999/xhtml">Data on patient's Mother</div>
      </text>
      <patient>
         <reference value="Patient/smart-7777702"/>
      </patient>
        <relationship>
          <coding>
            <system value="http://hl7.org/fhir/v3/RoleCode"/>
            <code value="MTH"/>
            <display value="mother"/>
          </coding>
        </relationship>
    </FamilyMemberHistory>
  
  </resource>
  <request>
    <method value="PUT"/>
    <url value="FamilyMemberHistory/smart-FamilyMemberHistory-10"/>
  </request>
</entry>

</Bundle>
