{
    "entry": [
        {
            "request": {
                "method": "PUT",
                "url": "Patient/smart-7777705"
            },
            "resource": {
                "active": true,
                "birthDate": "2012-08-24",
                "gender": "female",
                "generalPractitioner": {
                    "reference": "Practitioner/smart-Practitioner-71482713"
                },
                "id": "smart-7777705",
                "identifier": [
                    {
                        "system": "http://hospital.smarthealthit.org",
                        "type": {
                            "coding": [
                                {
                                    "code": "MR",
                                    "display": "Medical Record Number",
                                    "system": "http://hl7.org/fhir/v2/0203"
                                }
                            ],
                            "text": "Medical Record Number"
                        },
                        "use": "official",
                        "value": "smart-7777705"
                    }
                ],
                "name": [
                    {
                        "family": "Montgomery",
                        "given": [
                            "Angela"
                        ],
                        "use": "official"
                    }
                ],
                "resourceType": "Patient",
                "text": {
                    "div": "<div xmlns=\"http://www.w3.org/1999/xhtml\">Angela Montgomery</div>",
                    "status": "generated"
                },
                "meta": {
                    "tag": [
                        {
                            "system": "https://smarthealthit.org/tags",
                            "code": "smart-7-2017"
                        }
                    ]
                }
            },
            "fullUrl": "/Patient/smart-7777705"
        },
        {
            "request": {
                "method": "PUT",
                "url": "Observation/smart-7777705-gestage"
            },
            "resource": {
                "category": [
                    {
                        "coding": {
                            "code": "exam",
                            "display": "Exam",
                            "system": "http://hl7.org/fhir/observation-category"
                        },
                        "text": "Exam"
                    }
                ],
                "code": {
                    "coding": [
                        {
                            "code": "18185-9",
                            "display": "Gestational age at birth",
                            "system": "http://loinc.org"
                        }
                    ],
                    "text": "Gestational age at birth"
                },
                "effectiveDateTime": "2012-08-24",
                "id": "smart-7777705-gestage",
                "identifier": [
                    {
                        "system": "http://www.bmc.nl/zorgportal/identifiers/observations",
                        "use": "official",
                        "value": "smart-7777705-gestage"
                    }
                ],
                "performer": {
                    "reference": "Practitioner/smart-Practitioner-71482713"
                },
                "resourceType": "Observation",
                "status": "unknown",
                "subject": {
                    "reference": "Patient/smart-7777705"
                },
                "text": {
                    "div": "<div xmlns=\"http://www.w3.org/1999/xhtml\">2012-08-24: Gestational age at birth = 25.2 weeks</div>",
                    "status": "generated"
                },
                "valueQuantity": {
                    "code": "wk",
                    "system": "http://unitsofmeasure.org",
                    "unit": "weeks",
                    "value": 25.2
                },
                "meta": {
                    "tag": [
                        {
                            "system": "https://smarthealthit.org/tags",
                            "code": "smart-7-2017"
                        }
                    ]
                }
            },
            "fullUrl": "/Observation/smart-7777705-gestage"
        },
        {
            "request": {
                "method": "PUT",
                "url": "Encounter/smart-1025"
            },
            "resource": {
                "class": {
                    "code": "ambulatory"
                },
                "id": "smart-1025",
                "period": {
                    "end": "2012-08-24",
                    "start": "2012-08-24"
                },
                "resourceType": "Encounter",
                "status": "finished",
                "subject": {
                    "reference": "Patient/smart-7777705"
                },
                "text": {
                    "div": "<div xmlns=\"http://www.w3.org/1999/xhtml\">2012-08-24: ambulatory encounter</div>",
                    "status": "generated"
                },
                "type": [
                    {
                        "coding": [
                            {
                                "code": "270427003",
                                "display": "Patient-initiated encounter",
                                "system": "http://snomed.info"
                            }
                        ],
                        "text": "Patient-initiated ambulatory encounter"
                    }
                ],
                "meta": {
                    "tag": [
                        {
                            "system": "https://smarthealthit.org/tags",
                            "code": "smart-7-2017"
                        }
                    ]
                }
            },
            "fullUrl": "/Encounter/smart-1025"
        },
        {
            "request": {
                "method": "PUT",
                "url": "Encounter/smart-1026"
            },
            "resource": {
                "class": {
                    "code": "ambulatory"
                },
                "id": "smart-1026",
                "period": {
                    "end": "2012-12-02",
                    "start": "2012-12-02"
                },
                "resourceType": "Encounter",
                "status": "finished",
                "subject": {
                    "reference": "Patient/smart-7777705"
                },
                "text": {
                    "div": "<div xmlns=\"http://www.w3.org/1999/xhtml\">2012-12-02: ambulatory encounter</div>",
                    "status": "generated"
                },
                "type": [
                    {
                        "coding": [
                            {
                                "code": "270427003",
                                "display": "Patient-initiated encounter",
                                "system": "http://snomed.info"
                            }
                        ],
                        "text": "Patient-initiated ambulatory encounter"
                    }
                ],
                "meta": {
                    "tag": [
                        {
                            "system": "https://smarthealthit.org/tags",
                            "code": "smart-7-2017"
                        }
                    ]
                }
            },
            "fullUrl": "/Encounter/smart-1026"
        },
        {
            "request": {
                "method": "PUT",
                "url": "Encounter/smart-1027"
            },
            "resource": {
                "class": {
                    "code": "ambulatory"
                },
                "id": "smart-1027",
                "period": {
                    "end": "2012-12-08",
                    "start": "2012-12-08"
                },
                "resourceType": "Encounter",
                "status": "finished",
                "subject": {
                    "reference": "Patient/smart-7777705"
                },
                "text": {
                    "div": "<div xmlns=\"http://www.w3.org/1999/xhtml\">2012-12-08: ambulatory encounter</div>",
                    "status": "generated"
                },
                "type": [
                    {
                        "coding": [
                            {
                                "code": "270427003",
                                "display": "Patient-initiated encounter",
                                "system": "http://snomed.info"
                            }
                        ],
                        "text": "Patient-initiated ambulatory encounter"
                    }
                ],
                "meta": {
                    "tag": [
                        {
                            "system": "https://smarthealthit.org/tags",
                            "code": "smart-7-2017"
                        }
                    ]
                }
            },
            "fullUrl": "/Encounter/smart-1027"
        },
        {
            "request": {
                "method": "PUT",
                "url": "Encounter/smart-1028"
            },
            "resource": {
                "class": {
                    "code": "ambulatory"
                },
                "id": "smart-1028",
                "period": {
                    "end": "2012-12-15",
                    "start": "2012-12-15"
                },
                "resourceType": "Encounter",
                "status": "finished",
                "subject": {
                    "reference": "Patient/smart-7777705"
                },
                "text": {
                    "div": "<div xmlns=\"http://www.w3.org/1999/xhtml\">2012-12-15: ambulatory encounter</div>",
                    "status": "generated"
                },
                "type": [
                    {
                        "coding": [
                            {
                                "code": "270427003",
                                "display": "Patient-initiated encounter",
                                "system": "http://snomed.info"
                            }
                        ],
                        "text": "Patient-initiated ambulatory encounter"
                    }
                ],
                "meta": {
                    "tag": [
                        {
                            "system": "https://smarthealthit.org/tags",
                            "code": "smart-7-2017"
                        }
                    ]
                }
            },
            "fullUrl": "/Encounter/smart-1028"
        },
        {
            "request": {
                "method": "PUT",
                "url": "Encounter/smart-1029"
            },
            "resource": {
                "class": {
                    "code": "ambulatory"
                },
                "id": "smart-1029",
                "period": {
                    "end": "2012-12-30",
                    "start": "2012-12-30"
                },
                "resourceType": "Encounter",
                "status": "finished",
                "subject": {
                    "reference": "Patient/smart-7777705"
                },
                "text": {
                    "div": "<div xmlns=\"http://www.w3.org/1999/xhtml\">2012-12-30: ambulatory encounter</div>",
                    "status": "generated"
                },
                "type": [
                    {
                        "coding": [
                            {
                                "code": "270427003",
                                "display": "Patient-initiated encounter",
                                "system": "http://snomed.info"
                            }
                        ],
                        "text": "Patient-initiated ambulatory encounter"
                    }
                ],
                "meta": {
                    "tag": [
                        {
                            "system": "https://smarthealthit.org/tags",
                            "code": "smart-7-2017"
                        }
                    ]
                }
            },
            "fullUrl": "/Encounter/smart-1029"
        },
        {
            "request": {
                "method": "PUT",
                "url": "Encounter/smart-1030"
            },
            "resource": {
                "class": {
                    "code": "ambulatory"
                },
                "id": "smart-1030",
                "period": {
                    "end": "2013-01-08",
                    "start": "2013-01-08"
                },
                "resourceType": "Encounter",
                "status": "finished",
                "subject": {
                    "reference": "Patient/smart-7777705"
                },
                "text": {
                    "div": "<div xmlns=\"http://www.w3.org/1999/xhtml\">2013-01-08: ambulatory encounter</div>",
                    "status": "generated"
                },
                "type": [
                    {
                        "coding": [
                            {
                                "code": "270427003",
                                "display": "Patient-initiated encounter",
                                "system": "http://snomed.info"
                            }
                        ],
                        "text": "Patient-initiated ambulatory encounter"
                    }
                ],
                "meta": {
                    "tag": [
                        {
                            "system": "https://smarthealthit.org/tags",
                            "code": "smart-7-2017"
                        }
                    ]
                }
            },
            "fullUrl": "/Encounter/smart-1030"
        },
        {
            "request": {
                "method": "PUT",
                "url": "Encounter/smart-1031"
            },
            "resource": {
                "class": {
                    "code": "ambulatory"
                },
                "id": "smart-1031",
                "period": {
                    "end": "2013-01-14",
                    "start": "2013-01-14"
                },
                "resourceType": "Encounter",
                "status": "finished",
                "subject": {
                    "reference": "Patient/smart-7777705"
                },
                "text": {
                    "div": "<div xmlns=\"http://www.w3.org/1999/xhtml\">2013-01-14: ambulatory encounter</div>",
                    "status": "generated"
                },
                "type": [
                    {
                        "coding": [
                            {
                                "code": "270427003",
                                "display": "Patient-initiated encounter",
                                "system": "http://snomed.info"
                            }
                        ],
                        "text": "Patient-initiated ambulatory encounter"
                    }
                ],
                "meta": {
                    "tag": [
                        {
                            "system": "https://smarthealthit.org/tags",
                            "code": "smart-7-2017"
                        }
                    ]
                }
            },
            "fullUrl": "/Encounter/smart-1031"
        },
        {
            "request": {
                "method": "PUT",
                "url": "Encounter/smart-1032"
            },
            "resource": {
                "class": {
                    "code": "ambulatory"
                },
                "id": "smart-1032",
                "period": {
                    "end": "2013-01-23",
                    "start": "2013-01-23"
                },
                "resourceType": "Encounter",
                "status": "finished",
                "subject": {
                    "reference": "Patient/smart-7777705"
                },
                "text": {
                    "div": "<div xmlns=\"http://www.w3.org/1999/xhtml\">2013-01-23: ambulatory encounter</div>",
                    "status": "generated"
                },
                "type": [
                    {
                        "coding": [
                            {
                                "code": "270427003",
                                "display": "Patient-initiated encounter",
                                "system": "http://snomed.info"
                            }
                        ],
                        "text": "Patient-initiated ambulatory encounter"
                    }
                ],
                "meta": {
                    "tag": [
                        {
                            "system": "https://smarthealthit.org/tags",
                            "code": "smart-7-2017"
                        }
                    ]
                }
            },
            "fullUrl": "/Encounter/smart-1032"
        },
        {
            "request": {
                "method": "PUT",
                "url": "Encounter/smart-1033"
            },
            "resource": {
                "class": {
                    "code": "ambulatory"
                },
                "id": "smart-1033",
                "period": {
                    "end": "2013-01-29",
                    "start": "2013-01-29"
                },
                "resourceType": "Encounter",
                "status": "finished",
                "subject": {
                    "reference": "Patient/smart-7777705"
                },
                "text": {
                    "div": "<div xmlns=\"http://www.w3.org/1999/xhtml\">2013-01-29: ambulatory encounter</div>",
                    "status": "generated"
                },
                "type": [
                    {
                        "coding": [
                            {
                                "code": "270427003",
                                "display": "Patient-initiated encounter",
                                "system": "http://snomed.info"
                            }
                        ],
                        "text": "Patient-initiated ambulatory encounter"
                    }
                ],
                "meta": {
                    "tag": [
                        {
                            "system": "https://smarthealthit.org/tags",
                            "code": "smart-7-2017"
                        }
                    ]
                }
            },
            "fullUrl": "/Encounter/smart-1033"
        },
        {
            "request": {
                "method": "PUT",
                "url": "Encounter/smart-1034"
            },
            "resource": {
                "class": {
                    "code": "ambulatory"
                },
                "id": "smart-1034",
                "period": {
                    "end": "2013-02-19",
                    "start": "2013-02-19"
                },
                "resourceType": "Encounter",
                "status": "finished",
                "subject": {
                    "reference": "Patient/smart-7777705"
                },
                "text": {
                    "div": "<div xmlns=\"http://www.w3.org/1999/xhtml\">2013-02-19: ambulatory encounter</div>",
                    "status": "generated"
                },
                "type": [
                    {
                        "coding": [
                            {
                                "code": "270427003",
                                "display": "Patient-initiated encounter",
                                "system": "http://snomed.info"
                            }
                        ],
                        "text": "Patient-initiated ambulatory encounter"
                    }
                ],
                "meta": {
                    "tag": [
                        {
                            "system": "https://smarthealthit.org/tags",
                            "code": "smart-7-2017"
                        }
                    ]
                }
            },
            "fullUrl": "/Encounter/smart-1034"
        },
        {
            "request": {
                "method": "PUT",
                "url": "Encounter/smart-1035"
            },
            "resource": {
                "class": {
                    "code": "ambulatory"
                },
                "id": "smart-1035",
                "period": {
                    "end": "2013-02-21",
                    "start": "2013-02-21"
                },
                "resourceType": "Encounter",
                "status": "finished",
                "subject": {
                    "reference": "Patient/smart-7777705"
                },
                "text": {
                    "div": "<div xmlns=\"http://www.w3.org/1999/xhtml\">2013-02-21: ambulatory encounter</div>",
                    "status": "generated"
                },
                "type": [
                    {
                        "coding": [
                            {
                                "code": "270427003",
                                "display": "Patient-initiated encounter",
                                "system": "http://snomed.info"
                            }
                        ],
                        "text": "Patient-initiated ambulatory encounter"
                    }
                ],
                "meta": {
                    "tag": [
                        {
                            "system": "https://smarthealthit.org/tags",
                            "code": "smart-7-2017"
                        }
                    ]
                }
            },
            "fullUrl": "/Encounter/smart-1035"
        },
        {
            "request": {
                "method": "PUT",
                "url": "Observation/smart-3406-weight"
            },
            "resource": {
                "category": [
                    {
                        "coding": {
                            "code": "vital-signs",
                            "display": "Vital Signs",
                            "system": "http://hl7.org/fhir/observation-category"
                        },
                        "text": "Vital Signs"
                    }
                ],
                "code": {
                    "coding": [
                        {
                            "code": "3141-9",
                            "display": "weight",
                            "system": "http://loinc.org"
                        }
                    ],
                    "text": "weight"
                },
                "context": {
                    "reference": "Encounter/smart-1025"
                },
                "effectiveDateTime": "2012-08-24",
                "id": "smart-3406-weight",
                "identifier": [
                    {
                        "system": "http://www.bmc.nl/zorgportal/identifiers/observations",
                        "use": "official",
                        "value": "smart-3406-weight"
                    }
                ],
                "performer": {
                    "reference": "Practitioner/smart-Practitioner-71482713"
                },
                "resourceType": "Observation",
                "status": "unknown",
                "subject": {
                    "reference": "Patient/smart-7777705"
                },
                "text": {
                    "div": "<div xmlns=\"http://www.w3.org/1999/xhtml\">2012-08-24: weight = 0.753 kg</div>",
                    "status": "generated"
                },
                "valueQuantity": {
                    "code": "kg",
                    "system": "http://unitsofmeasure.org",
                    "unit": "kg",
                    "value": 0.753
                },
                "meta": {
                    "tag": [
                        {
                            "system": "https://smarthealthit.org/tags",
                            "code": "smart-7-2017"
                        }
                    ]
                }
            },
            "fullUrl": "/Observation/smart-3406-weight"
        },
        {
            "request": {
                "method": "PUT",
                "url": "Observation/smart-3407-height"
            },
            "resource": {
                "category": [
                    {
                        "coding": {
                            "code": "vital-signs",
                            "display": "Vital Signs",
                            "system": "http://hl7.org/fhir/observation-category"
                        },
                        "text": "Vital Signs"
                    }
                ],
                "code": {
                    "coding": [
                        {
                            "code": "8302-2",
                            "display": "height",
                            "system": "http://loinc.org"
                        }
                    ],
                    "text": "height"
                },
                "context": {
                    "reference": "Encounter/smart-1026"
                },
                "effectiveDateTime": "2012-12-02",
                "id": "smart-3407-height",
                "identifier": [
                    {
                        "system": "http://www.bmc.nl/zorgportal/identifiers/observations",
                        "use": "official",
                        "value": "smart-3407-height"
                    }
                ],
                "performer": {
                    "reference": "Practitioner/smart-Practitioner-71482713"
                },
                "resourceType": "Observation",
                "status": "unknown",
                "subject": {
                    "reference": "Patient/smart-7777705"
                },
                "text": {
                    "div": "<div xmlns=\"http://www.w3.org/1999/xhtml\">2012-12-02: height = 45.0 cm</div>",
                    "status": "generated"
                },
                "valueQuantity": {
                    "code": "cm",
                    "system": "http://unitsofmeasure.org",
                    "unit": "cm",
                    "value": 45
                },
                "meta": {
                    "tag": [
                        {
                            "system": "https://smarthealthit.org/tags",
                            "code": "smart-7-2017"
                        }
                    ]
                }
            },
            "fullUrl": "/Observation/smart-3407-height"
        },
        {
            "request": {
                "method": "PUT",
                "url": "Observation/smart-3408-weight"
            },
            "resource": {
                "category": [
                    {
                        "coding": {
                            "code": "vital-signs",
                            "display": "Vital Signs",
                            "system": "http://hl7.org/fhir/observation-category"
                        },
                        "text": "Vital Signs"
                    }
                ],
                "code": {
                    "coding": [
                        {
                            "code": "3141-9",
                            "display": "weight",
                            "system": "http://loinc.org"
                        }
                    ],
                    "text": "weight"
                },
                "context": {
                    "reference": "Encounter/smart-1026"
                },
                "effectiveDateTime": "2012-12-02",
                "id": "smart-3408-weight",
                "identifier": [
                    {
                        "system": "http://www.bmc.nl/zorgportal/identifiers/observations",
                        "use": "official",
                        "value": "smart-3408-weight"
                    }
                ],
                "performer": {
                    "reference": "Practitioner/smart-Practitioner-71482713"
                },
                "resourceType": "Observation",
                "status": "unknown",
                "subject": {
                    "reference": "Patient/smart-7777705"
                },
                "text": {
                    "div": "<div xmlns=\"http://www.w3.org/1999/xhtml\">2012-12-02: weight = 2.194 kg</div>",
                    "status": "generated"
                },
                "valueQuantity": {
                    "code": "kg",
                    "system": "http://unitsofmeasure.org",
                    "unit": "kg",
                    "value": 2.194
                },
                "meta": {
                    "tag": [
                        {
                            "system": "https://smarthealthit.org/tags",
                            "code": "smart-7-2017"
                        }
                    ]
                }
            },
            "fullUrl": "/Observation/smart-3408-weight"
        },
        {
            "request": {
                "method": "PUT",
                "url": "Observation/smart-3409-height"
            },
            "resource": {
                "category": [
                    {
                        "coding": {
                            "code": "vital-signs",
                            "display": "Vital Signs",
                            "system": "http://hl7.org/fhir/observation-category"
                        },
                        "text": "Vital Signs"
                    }
                ],
                "code": {
                    "coding": [
                        {
                            "code": "8302-2",
                            "display": "height",
                            "system": "http://loinc.org"
                        }
                    ],
                    "text": "height"
                },
                "context": {
                    "reference": "Encounter/smart-1027"
                },
                "effectiveDateTime": "2012-12-08",
                "id": "smart-3409-height",
                "identifier": [
                    {
                        "system": "http://www.bmc.nl/zorgportal/identifiers/observations",
                        "use": "official",
                        "value": "smart-3409-height"
                    }
                ],
                "performer": {
                    "reference": "Practitioner/smart-Practitioner-71482713"
                },
                "resourceType": "Observation",
                "status": "unknown",
                "subject": {
                    "reference": "Patient/smart-7777705"
                },
                "text": {
                    "div": "<div xmlns=\"http://www.w3.org/1999/xhtml\">2012-12-08: height = 45.0 cm</div>",
                    "status": "generated"
                },
                "valueQuantity": {
                    "code": "cm",
                    "system": "http://unitsofmeasure.org",
                    "unit": "cm",
                    "value": 45
                },
                "meta": {
                    "tag": [
                        {
                            "system": "https://smarthealthit.org/tags",
                            "code": "smart-7-2017"
                        }
                    ]
                }
            },
            "fullUrl": "/Observation/smart-3409-height"
        },
        {
            "request": {
                "method": "PUT",
                "url": "Observation/smart-3410-weight"
            },
            "resource": {
                "category": [
                    {
                        "coding": {
                            "code": "vital-signs",
                            "display": "Vital Signs",
                            "system": "http://hl7.org/fhir/observation-category"
                        },
                        "text": "Vital Signs"
                    }
                ],
                "code": {
                    "coding": [
                        {
                            "code": "3141-9",
                            "display": "weight",
                            "system": "http://loinc.org"
                        }
                    ],
                    "text": "weight"
                },
                "context": {
                    "reference": "Encounter/smart-1027"
                },
                "effectiveDateTime": "2012-12-08",
                "id": "smart-3410-weight",
                "identifier": [
                    {
                        "system": "http://www.bmc.nl/zorgportal/identifiers/observations",
                        "use": "official",
                        "value": "smart-3410-weight"
                    }
                ],
                "performer": {
                    "reference": "Practitioner/smart-Practitioner-71482713"
                },
                "resourceType": "Observation",
                "status": "unknown",
                "subject": {
                    "reference": "Patient/smart-7777705"
                },
                "text": {
                    "div": "<div xmlns=\"http://www.w3.org/1999/xhtml\">2012-12-08: weight = 2.244 kg</div>",
                    "status": "generated"
                },
                "valueQuantity": {
                    "code": "kg",
                    "system": "http://unitsofmeasure.org",
                    "unit": "kg",
                    "value": 2.244
                },
                "meta": {
                    "tag": [
                        {
                            "system": "https://smarthealthit.org/tags",
                            "code": "smart-7-2017"
                        }
                    ]
                }
            },
            "fullUrl": "/Observation/smart-3410-weight"
        },
        {
            "request": {
                "method": "PUT",
                "url": "Observation/smart-3411-height"
            },
            "resource": {
                "category": [
                    {
                        "coding": {
                            "code": "vital-signs",
                            "display": "Vital Signs",
                            "system": "http://hl7.org/fhir/observation-category"
                        },
                        "text": "Vital Signs"
                    }
                ],
                "code": {
                    "coding": [
                        {
                            "code": "8302-2",
                            "display": "height",
                            "system": "http://loinc.org"
                        }
                    ],
                    "text": "height"
                },
                "context": {
                    "reference": "Encounter/smart-1028"
                },
                "effectiveDateTime": "2012-12-15",
                "id": "smart-3411-height",
                "identifier": [
                    {
                        "system": "http://www.bmc.nl/zorgportal/identifiers/observations",
                        "use": "official",
                        "value": "smart-3411-height"
                    }
                ],
                "performer": {
                    "reference": "Practitioner/smart-Practitioner-71482713"
                },
                "resourceType": "Observation",
                "status": "unknown",
                "subject": {
                    "reference": "Patient/smart-7777705"
                },
                "text": {
                    "div": "<div xmlns=\"http://www.w3.org/1999/xhtml\">2012-12-15: height = 45.0 cm</div>",
                    "status": "generated"
                },
                "valueQuantity": {
                    "code": "cm",
                    "system": "http://unitsofmeasure.org",
                    "unit": "cm",
                    "value": 45
                },
                "meta": {
                    "tag": [
                        {
                            "system": "https://smarthealthit.org/tags",
                            "code": "smart-7-2017"
                        }
                    ]
                }
            },
            "fullUrl": "/Observation/smart-3411-height"
        },
        {
            "request": {
                "method": "PUT",
                "url": "Observation/smart-3412-weight"
            },
            "resource": {
                "category": [
                    {
                        "coding": {
                            "code": "vital-signs",
                            "display": "Vital Signs",
                            "system": "http://hl7.org/fhir/observation-category"
                        },
                        "text": "Vital Signs"
                    }
                ],
                "code": {
                    "coding": [
                        {
                            "code": "3141-9",
                            "display": "weight",
                            "system": "http://loinc.org"
                        }
                    ],
                    "text": "weight"
                },
                "context": {
                    "reference": "Encounter/smart-1028"
                },
                "effectiveDateTime": "2012-12-15",
                "id": "smart-3412-weight",
                "identifier": [
                    {
                        "system": "http://www.bmc.nl/zorgportal/identifiers/observations",
                        "use": "official",
                        "value": "smart-3412-weight"
                    }
                ],
                "performer": {
                    "reference": "Practitioner/smart-Practitioner-71482713"
                },
                "resourceType": "Observation",
                "status": "unknown",
                "subject": {
                    "reference": "Patient/smart-7777705"
                },
                "text": {
                    "div": "<div xmlns=\"http://www.w3.org/1999/xhtml\">2012-12-15: weight = 2.371 kg</div>",
                    "status": "generated"
                },
                "valueQuantity": {
                    "code": "kg",
                    "system": "http://unitsofmeasure.org",
                    "unit": "kg",
                    "value": 2.371
                },
                "meta": {
                    "tag": [
                        {
                            "system": "https://smarthealthit.org/tags",
                            "code": "smart-7-2017"
                        }
                    ]
                }
            },
            "fullUrl": "/Observation/smart-3412-weight"
        },
        {
            "request": {
                "method": "PUT",
                "url": "Observation/smart-3413-height"
            },
            "resource": {
                "category": [
                    {
                        "coding": {
                            "code": "vital-signs",
                            "display": "Vital Signs",
                            "system": "http://hl7.org/fhir/observation-category"
                        },
                        "text": "Vital Signs"
                    }
                ],
                "code": {
                    "coding": [
                        {
                            "code": "8302-2",
                            "display": "height",
                            "system": "http://loinc.org"
                        }
                    ],
                    "text": "height"
                },
                "context": {
                    "reference": "Encounter/smart-1029"
                },
                "effectiveDateTime": "2012-12-30",
                "id": "smart-3413-height",
                "identifier": [
                    {
                        "system": "http://www.bmc.nl/zorgportal/identifiers/observations",
                        "use": "official",
                        "value": "smart-3413-height"
                    }
                ],
                "performer": {
                    "reference": "Practitioner/smart-Practitioner-71482713"
                },
                "resourceType": "Observation",
                "status": "unknown",
                "subject": {
                    "reference": "Patient/smart-7777705"
                },
                "text": {
                    "div": "<div xmlns=\"http://www.w3.org/1999/xhtml\">2012-12-30: height = 45.9 cm</div>",
                    "status": "generated"
                },
                "valueQuantity": {
                    "code": "cm",
                    "system": "http://unitsofmeasure.org",
                    "unit": "cm",
                    "value": 45.9
                },
                "meta": {
                    "tag": [
                        {
                            "system": "https://smarthealthit.org/tags",
                            "code": "smart-7-2017"
                        }
                    ]
                }
            },
            "fullUrl": "/Observation/smart-3413-height"
        },
        {
            "request": {
                "method": "PUT",
                "url": "Observation/smart-3414-weight"
            },
            "resource": {
                "category": [
                    {
                        "coding": {
                            "code": "vital-signs",
                            "display": "Vital Signs",
                            "system": "http://hl7.org/fhir/observation-category"
                        },
                        "text": "Vital Signs"
                    }
                ],
                "code": {
                    "coding": [
                        {
                            "code": "3141-9",
                            "display": "weight",
                            "system": "http://loinc.org"
                        }
                    ],
                    "text": "weight"
                },
                "context": {
                    "reference": "Encounter/smart-1029"
                },
                "effectiveDateTime": "2012-12-30",
                "id": "smart-3414-weight",
                "identifier": [
                    {
                        "system": "http://www.bmc.nl/zorgportal/identifiers/observations",
                        "use": "official",
                        "value": "smart-3414-weight"
                    }
                ],
                "performer": {
                    "reference": "Practitioner/smart-Practitioner-71482713"
                },
                "resourceType": "Observation",
                "status": "unknown",
                "subject": {
                    "reference": "Patient/smart-7777705"
                },
                "text": {
                    "div": "<div xmlns=\"http://www.w3.org/1999/xhtml\">2012-12-30: weight = 2.648 kg</div>",
                    "status": "generated"
                },
                "valueQuantity": {
                    "code": "kg",
                    "system": "http://unitsofmeasure.org",
                    "unit": "kg",
                    "value": 2.648
                },
                "meta": {
                    "tag": [
                        {
                            "system": "https://smarthealthit.org/tags",
                            "code": "smart-7-2017"
                        }
                    ]
                }
            },
            "fullUrl": "/Observation/smart-3414-weight"
        },
        {
            "request": {
                "method": "PUT",
                "url": "Observation/smart-3415-height"
            },
            "resource": {
                "category": [
                    {
                        "coding": {
                            "code": "vital-signs",
                            "display": "Vital Signs",
                            "system": "http://hl7.org/fhir/observation-category"
                        },
                        "text": "Vital Signs"
                    }
                ],
                "code": {
                    "coding": [
                        {
                            "code": "8302-2",
                            "display": "height",
                            "system": "http://loinc.org"
                        }
                    ],
                    "text": "height"
                },
                "context": {
                    "reference": "Encounter/smart-1030"
                },
                "effectiveDateTime": "2013-01-08",
                "id": "smart-3415-height",
                "identifier": [
                    {
                        "system": "http://www.bmc.nl/zorgportal/identifiers/observations",
                        "use": "official",
                        "value": "smart-3415-height"
                    }
                ],
                "performer": {
                    "reference": "Practitioner/smart-Practitioner-71482713"
                },
                "resourceType": "Observation",
                "status": "unknown",
                "subject": {
                    "reference": "Patient/smart-7777705"
                },
                "text": {
                    "div": "<div xmlns=\"http://www.w3.org/1999/xhtml\">2013-01-08: height = 46.7 cm</div>",
                    "status": "generated"
                },
                "valueQuantity": {
                    "code": "cm",
                    "system": "http://unitsofmeasure.org",
                    "unit": "cm",
                    "value": 46.7
                },
                "meta": {
                    "tag": [
                        {
                            "system": "https://smarthealthit.org/tags",
                            "code": "smart-7-2017"
                        }
                    ]
                }
            },
            "fullUrl": "/Observation/smart-3415-height"
        },
        {
            "request": {
                "method": "PUT",
                "url": "Observation/smart-3416-weight"
            },
            "resource": {
                "category": [
                    {
                        "coding": {
                            "code": "vital-signs",
                            "display": "Vital Signs",
                            "system": "http://hl7.org/fhir/observation-category"
                        },
                        "text": "Vital Signs"
                    }
                ],
                "code": {
                    "coding": [
                        {
                            "code": "3141-9",
                            "display": "weight",
                            "system": "http://loinc.org"
                        }
                    ],
                    "text": "weight"
                },
                "context": {
                    "reference": "Encounter/smart-1030"
                },
                "effectiveDateTime": "2013-01-08",
                "id": "smart-3416-weight",
                "identifier": [
                    {
                        "system": "http://www.bmc.nl/zorgportal/identifiers/observations",
                        "use": "official",
                        "value": "smart-3416-weight"
                    }
                ],
                "performer": {
                    "reference": "Practitioner/smart-Practitioner-71482713"
                },
                "resourceType": "Observation",
                "status": "unknown",
                "subject": {
                    "reference": "Patient/smart-7777705"
                },
                "text": {
                    "div": "<div xmlns=\"http://www.w3.org/1999/xhtml\">2013-01-08: weight = 2.775 kg</div>",
                    "status": "generated"
                },
                "valueQuantity": {
                    "code": "kg",
                    "system": "http://unitsofmeasure.org",
                    "unit": "kg",
                    "value": 2.775
                },
                "meta": {
                    "tag": [
                        {
                            "system": "https://smarthealthit.org/tags",
                            "code": "smart-7-2017"
                        }
                    ]
                }
            },
            "fullUrl": "/Observation/smart-3416-weight"
        },
        {
            "request": {
                "method": "PUT",
                "url": "Observation/smart-3417-height"
            },
            "resource": {
                "category": [
                    {
                        "coding": {
                            "code": "vital-signs",
                            "display": "Vital Signs",
                            "system": "http://hl7.org/fhir/observation-category"
                        },
                        "text": "Vital Signs"
                    }
                ],
                "code": {
                    "coding": [
                        {
                            "code": "8302-2",
                            "display": "height",
                            "system": "http://loinc.org"
                        }
                    ],
                    "text": "height"
                },
                "context": {
                    "reference": "Encounter/smart-1031"
                },
                "effectiveDateTime": "2013-01-14",
                "id": "smart-3417-height",
                "identifier": [
                    {
                        "system": "http://www.bmc.nl/zorgportal/identifiers/observations",
                        "use": "official",
                        "value": "smart-3417-height"
                    }
                ],
                "performer": {
                    "reference": "Practitioner/smart-Practitioner-71482713"
                },
                "resourceType": "Observation",
                "status": "unknown",
                "subject": {
                    "reference": "Patient/smart-7777705"
                },
                "text": {
                    "div": "<div xmlns=\"http://www.w3.org/1999/xhtml\">2013-01-14: height = 46.8 cm</div>",
                    "status": "generated"
                },
                "valueQuantity": {
                    "code": "cm",
                    "system": "http://unitsofmeasure.org",
                    "unit": "cm",
                    "value": 46.8
                },
                "meta": {
                    "tag": [
                        {
                            "system": "https://smarthealthit.org/tags",
                            "code": "smart-7-2017"
                        }
                    ]
                }
            },
            "fullUrl": "/Observation/smart-3417-height"
        },
        {
            "request": {
                "method": "PUT",
                "url": "Observation/smart-3418-weight"
            },
            "resource": {
                "category": [
                    {
                        "coding": {
                            "code": "vital-signs",
                            "display": "Vital Signs",
                            "system": "http://hl7.org/fhir/observation-category"
                        },
                        "text": "Vital Signs"
                    }
                ],
                "code": {
                    "coding": [
                        {
                            "code": "3141-9",
                            "display": "weight",
                            "system": "http://loinc.org"
                        }
                    ],
                    "text": "weight"
                },
                "context": {
                    "reference": "Encounter/smart-1031"
                },
                "effectiveDateTime": "2013-01-14",
                "id": "smart-3418-weight",
                "identifier": [
                    {
                        "system": "http://www.bmc.nl/zorgportal/identifiers/observations",
                        "use": "official",
                        "value": "smart-3418-weight"
                    }
                ],
                "performer": {
                    "reference": "Practitioner/smart-Practitioner-71482713"
                },
                "resourceType": "Observation",
                "status": "unknown",
                "subject": {
                    "reference": "Patient/smart-7777705"
                },
                "text": {
                    "div": "<div xmlns=\"http://www.w3.org/1999/xhtml\">2013-01-14: weight = 2.926 kg</div>",
                    "status": "generated"
                },
                "valueQuantity": {
                    "code": "kg",
                    "system": "http://unitsofmeasure.org",
                    "unit": "kg",
                    "value": 2.926
                },
                "meta": {
                    "tag": [
                        {
                            "system": "https://smarthealthit.org/tags",
                            "code": "smart-7-2017"
                        }
                    ]
                }
            },
            "fullUrl": "/Observation/smart-3418-weight"
        },
        {
            "request": {
                "method": "PUT",
                "url": "Observation/smart-3419-weight"
            },
            "resource": {
                "category": [
                    {
                        "coding": {
                            "code": "vital-signs",
                            "display": "Vital Signs",
                            "system": "http://hl7.org/fhir/observation-category"
                        },
                        "text": "Vital Signs"
                    }
                ],
                "code": {
                    "coding": [
                        {
                            "code": "3141-9",
                            "display": "weight",
                            "system": "http://loinc.org"
                        }
                    ],
                    "text": "weight"
                },
                "context": {
                    "reference": "Encounter/smart-1032"
                },
                "effectiveDateTime": "2013-01-23",
                "id": "smart-3419-weight",
                "identifier": [
                    {
                        "system": "http://www.bmc.nl/zorgportal/identifiers/observations",
                        "use": "official",
                        "value": "smart-3419-weight"
                    }
                ],
                "performer": {
                    "reference": "Practitioner/smart-Practitioner-71482713"
                },
                "resourceType": "Observation",
                "status": "unknown",
                "subject": {
                    "reference": "Patient/smart-7777705"
                },
                "text": {
                    "div": "<div xmlns=\"http://www.w3.org/1999/xhtml\">2013-01-23: weight = 3.1 kg</div>",
                    "status": "generated"
                },
                "valueQuantity": {
                    "code": "kg",
                    "system": "http://unitsofmeasure.org",
                    "unit": "kg",
                    "value": 3.1
                },
                "meta": {
                    "tag": [
                        {
                            "system": "https://smarthealthit.org/tags",
                            "code": "smart-7-2017"
                        }
                    ]
                }
            },
            "fullUrl": "/Observation/smart-3419-weight"
        },
        {
            "request": {
                "method": "PUT",
                "url": "Observation/smart-3420-height"
            },
            "resource": {
                "category": [
                    {
                        "coding": {
                            "code": "vital-signs",
                            "display": "Vital Signs",
                            "system": "http://hl7.org/fhir/observation-category"
                        },
                        "text": "Vital Signs"
                    }
                ],
                "code": {
                    "coding": [
                        {
                            "code": "8302-2",
                            "display": "height",
                            "system": "http://loinc.org"
                        }
                    ],
                    "text": "height"
                },
                "context": {
                    "reference": "Encounter/smart-1033"
                },
                "effectiveDateTime": "2013-01-29",
                "id": "smart-3420-height",
                "identifier": [
                    {
                        "system": "http://www.bmc.nl/zorgportal/identifiers/observations",
                        "use": "official",
                        "value": "smart-3420-height"
                    }
                ],
                "performer": {
                    "reference": "Practitioner/smart-Practitioner-71482713"
                },
                "resourceType": "Observation",
                "status": "unknown",
                "subject": {
                    "reference": "Patient/smart-7777705"
                },
                "text": {
                    "div": "<div xmlns=\"http://www.w3.org/1999/xhtml\">2013-01-29: height = 49.5 cm</div>",
                    "status": "generated"
                },
                "valueQuantity": {
                    "code": "cm",
                    "system": "http://unitsofmeasure.org",
                    "unit": "cm",
                    "value": 49.5
                },
                "meta": {
                    "tag": [
                        {
                            "system": "https://smarthealthit.org/tags",
                            "code": "smart-7-2017"
                        }
                    ]
                }
            },
            "fullUrl": "/Observation/smart-3420-height"
        },
        {
            "request": {
                "method": "PUT",
                "url": "Observation/smart-3421-weight"
            },
            "resource": {
                "category": [
                    {
                        "coding": {
                            "code": "vital-signs",
                            "display": "Vital Signs",
                            "system": "http://hl7.org/fhir/observation-category"
                        },
                        "text": "Vital Signs"
                    }
                ],
                "code": {
                    "coding": [
                        {
                            "code": "3141-9",
                            "display": "weight",
                            "system": "http://loinc.org"
                        }
                    ],
                    "text": "weight"
                },
                "context": {
                    "reference": "Encounter/smart-1033"
                },
                "effectiveDateTime": "2013-01-29",
                "id": "smart-3421-weight",
                "identifier": [
                    {
                        "system": "http://www.bmc.nl/zorgportal/identifiers/observations",
                        "use": "official",
                        "value": "smart-3421-weight"
                    }
                ],
                "performer": {
                    "reference": "Practitioner/smart-Practitioner-71482713"
                },
                "resourceType": "Observation",
                "status": "unknown",
                "subject": {
                    "reference": "Patient/smart-7777705"
                },
                "text": {
                    "div": "<div xmlns=\"http://www.w3.org/1999/xhtml\">2013-01-29: weight = 3.2 kg</div>",
                    "status": "generated"
                },
                "valueQuantity": {
                    "code": "kg",
                    "system": "http://unitsofmeasure.org",
                    "unit": "kg",
                    "value": 3.2
                },
                "meta": {
                    "tag": [
                        {
                            "system": "https://smarthealthit.org/tags",
                            "code": "smart-7-2017"
                        }
                    ]
                }
            },
            "fullUrl": "/Observation/smart-3421-weight"
        },
        {
            "request": {
                "method": "PUT",
                "url": "Observation/smart-3422-height"
            },
            "resource": {
                "category": [
                    {
                        "coding": {
                            "code": "vital-signs",
                            "display": "Vital Signs",
                            "system": "http://hl7.org/fhir/observation-category"
                        },
                        "text": "Vital Signs"
                    }
                ],
                "code": {
                    "coding": [
                        {
                            "code": "8302-2",
                            "display": "height",
                            "system": "http://loinc.org"
                        }
                    ],
                    "text": "height"
                },
                "context": {
                    "reference": "Encounter/smart-1034"
                },
                "effectiveDateTime": "2013-02-19",
                "id": "smart-3422-height",
                "identifier": [
                    {
                        "system": "http://www.bmc.nl/zorgportal/identifiers/observations",
                        "use": "official",
                        "value": "smart-3422-height"
                    }
                ],
                "performer": {
                    "reference": "Practitioner/smart-Practitioner-71482713"
                },
                "resourceType": "Observation",
                "status": "unknown",
                "subject": {
                    "reference": "Patient/smart-7777705"
                },
                "text": {
                    "div": "<div xmlns=\"http://www.w3.org/1999/xhtml\">2013-02-19: height = 50.1 cm</div>",
                    "status": "generated"
                },
                "valueQuantity": {
                    "code": "cm",
                    "system": "http://unitsofmeasure.org",
                    "unit": "cm",
                    "value": 50.1
                },
                "meta": {
                    "tag": [
                        {
                            "system": "https://smarthealthit.org/tags",
                            "code": "smart-7-2017"
                        }
                    ]
                }
            },
            "fullUrl": "/Observation/smart-3422-height"
        },
        {
            "request": {
                "method": "PUT",
                "url": "Observation/smart-3423-weight"
            },
            "resource": {
                "category": [
                    {
                        "coding": {
                            "code": "vital-signs",
                            "display": "Vital Signs",
                            "system": "http://hl7.org/fhir/observation-category"
                        },
                        "text": "Vital Signs"
                    }
                ],
                "code": {
                    "coding": [
                        {
                            "code": "3141-9",
                            "display": "weight",
                            "system": "http://loinc.org"
                        }
                    ],
                    "text": "weight"
                },
                "context": {
                    "reference": "Encounter/smart-1034"
                },
                "effectiveDateTime": "2013-02-19",
                "id": "smart-3423-weight",
                "identifier": [
                    {
                        "system": "http://www.bmc.nl/zorgportal/identifiers/observations",
                        "use": "official",
                        "value": "smart-3423-weight"
                    }
                ],
                "performer": {
                    "reference": "Practitioner/smart-Practitioner-71482713"
                },
                "resourceType": "Observation",
                "status": "unknown",
                "subject": {
                    "reference": "Patient/smart-7777705"
                },
                "text": {
                    "div": "<div xmlns=\"http://www.w3.org/1999/xhtml\">2013-02-19: weight = 3.7 kg</div>",
                    "status": "generated"
                },
                "valueQuantity": {
                    "code": "kg",
                    "system": "http://unitsofmeasure.org",
                    "unit": "kg",
                    "value": 3.7
                },
                "meta": {
                    "tag": [
                        {
                            "system": "https://smarthealthit.org/tags",
                            "code": "smart-7-2017"
                        }
                    ]
                }
            },
            "fullUrl": "/Observation/smart-3423-weight"
        },
        {
            "relationship": {},
            "request": {
                "method": "PUT",
                "url": "FamilyMemberHistory/smart-FamilyMemberHistory-15"
            },
            "resource": {
                "extension": [
                    {
                        "url": "http://fhir-registry.smarthealthit.org/StructureDefinition/family-history#height",
                        "valueQuantity": {
                            "code": "cm",
                            "system": "http://unitsofmeasure.org",
                            "unit": "centimeters",
                            "value": 177
                        }
                    }
                ],
                "id": "smart-FamilyMemberHistory-15",
                "patient": {
                    "reference": "Patient/smart-7777705"
                },
                "relationship": {
                    "coding": [
                        {
                            "code": "FTH",
                            "display": "father",
                            "system": "http://hl7.org/fhir/v3/RoleCode"
                        }
                    ],
                    "text": "Father"
                },
                "resourceType": "FamilyMemberHistory",
                "status": "completed",
                "text": {
                    "div": "<div xmlns=\"http://www.w3.org/1999/xhtml\">Data on patient's Father</div>",
                    "status": "generated"
                },
                "meta": {
                    "tag": [
                        {
                            "system": "https://smarthealthit.org/tags",
                            "code": "smart-7-2017"
                        }
                    ]
                }
            },
            "fullUrl": "/FamilyMemberHistory/smart-FamilyMemberHistory-15"
        },
        {
            "relationship": {},
            "request": {
                "method": "PUT",
                "url": "FamilyMemberHistory/smart-FamilyMemberHistory-16"
            },
            "resource": {
                "extension": [
                    {
                        "url": "http://fhir-registry.smarthealthit.org/StructureDefinition/family-history#height",
                        "valueQuantity": {
                            "code": "cm",
                            "system": "http://unitsofmeasure.org",
                            "unit": "centimeters",
                            "value": 164
                        }
                    }
                ],
                "id": "smart-FamilyMemberHistory-16",
                "patient": {
                    "reference": "Patient/smart-7777705"
                },
                "relationship": {
                    "coding": [
                        {
                            "code": "MTH",
                            "display": "mother",
                            "system": "http://hl7.org/fhir/v3/RoleCode"
                        }
                    ],
                    "text": "Mother"
                },
                "resourceType": "FamilyMemberHistory",
                "status": "completed",
                "text": {
                    "div": "<div xmlns=\"http://www.w3.org/1999/xhtml\">Data on patient's Mother</div>",
                    "status": "generated"
                },
                "meta": {
                    "tag": [
                        {
                            "system": "https://smarthealthit.org/tags",
                            "code": "smart-7-2017"
                        }
                    ]
                }
            },
            "fullUrl": "/FamilyMemberHistory/smart-FamilyMemberHistory-16"
        }
    ],
    "resourceType": "Bundle",
    "type": "transaction"
}