{
    "entry": [
        {
            "request": {
                "method": "PUT",
                "url": "MedicationDispense/smart-MedicationDispense-514"
            },
            "resource": {
                "authorizingPrescription": {
                    "reference": "MedicationRequest/smart-MedicationRequest-67"
                },
                "daysSupply": {
                    "code": "d",
                    "system": "http://unitsofmeasure.org",
                    "unit": "days",
                    "value": 30
                },
                "id": "smart-MedicationDispense-514",
                "medicationCodeableConcept": {
                    "coding": [
                        {
                            "code": "351761",
                            "display": "valsartan 80 MG Oral Tablet [Diovan]",
                            "system": "http://www.nlm.nih.gov/research/umls/rxnorm"
                        }
                    ],
                    "text": "valsartan 80 MG Oral Tablet [Diovan]"
                },
                "quantity": {
                    "code": "{tablets}",
                    "system": "http://unitsofmeasure.org",
                    "unit": "tablets",
                    "value": 30
                },
                "resourceType": "MedicationDispense",
                "status": "completed",
                "subject": {
                    "reference": "Patient/smart-935270"
                },
                "text": {
                    "div": "<div xmlns=\"http://www.w3.org/1999/xhtml\">Dispensed 30 tablets = 30 day supply of valsartan 80 MG Oral Tablet [Diovan]</div>",
                    "status": "generated"
                },
                "whenHandedOver": "2008-07-15",
                "meta": {
                    "tag": [
                        {
                            "system": "https://smarthealthit.org/tags",
                            "code": "smart-7-2017"
                        }
                    ]
                }
            },
            "fullUrl": "/MedicationDispense/smart-MedicationDispense-514"
        },
        {
            "request": {
                "method": "PUT",
                "url": "MedicationDispense/smart-MedicationDispense-526"
            },
            "resource": {
                "authorizingPrescription": {
                    "reference": "MedicationRequest/smart-MedicationRequest-67"
                },
                "daysSupply": {
                    "code": "d",
                    "system": "http://unitsofmeasure.org",
                    "unit": "days",
                    "value": 30
                },
                "id": "smart-MedicationDispense-526",
                "medicationCodeableConcept": {
                    "coding": [
                        {
                            "code": "351761",
                            "display": "valsartan 80 MG Oral Tablet [Diovan]",
                            "system": "http://www.nlm.nih.gov/research/umls/rxnorm"
                        }
                    ],
                    "text": "valsartan 80 MG Oral Tablet [Diovan]"
                },
                "quantity": {
                    "code": "{tablets}",
                    "system": "http://unitsofmeasure.org",
                    "unit": "tablets",
                    "value": 30
                },
                "resourceType": "MedicationDispense",
                "status": "completed",
                "subject": {
                    "reference": "Patient/smart-935270"
                },
                "text": {
                    "div": "<div xmlns=\"http://www.w3.org/1999/xhtml\">Dispensed 30 tablets = 30 day supply of valsartan 80 MG Oral Tablet [Diovan]</div>",
                    "status": "generated"
                },
                "whenHandedOver": "2009-01-09",
                "meta": {
                    "tag": [
                        {
                            "system": "https://smarthealthit.org/tags",
                            "code": "smart-7-2017"
                        }
                    ]
                }
            },
            "fullUrl": "/MedicationDispense/smart-MedicationDispense-526"
        },
        {
            "request": {
                "method": "PUT",
                "url": "MedicationDispense/smart-MedicationDispense-524"
            },
            "resource": {
                "authorizingPrescription": {
                    "reference": "MedicationRequest/smart-MedicationRequest-67"
                },
                "daysSupply": {
                    "code": "d",
                    "system": "http://unitsofmeasure.org",
                    "unit": "days",
                    "value": 30
                },
                "id": "smart-MedicationDispense-524",
                "medicationCodeableConcept": {
                    "coding": [
                        {
                            "code": "351761",
                            "display": "valsartan 80 MG Oral Tablet [Diovan]",
                            "system": "http://www.nlm.nih.gov/research/umls/rxnorm"
                        }
                    ],
                    "text": "valsartan 80 MG Oral Tablet [Diovan]"
                },
                "quantity": {
                    "code": "{tablets}",
                    "system": "http://unitsofmeasure.org",
                    "unit": "tablets",
                    "value": 30
                },
                "resourceType": "MedicationDispense",
                "status": "completed",
                "subject": {
                    "reference": "Patient/smart-935270"
                },
                "text": {
                    "div": "<div xmlns=\"http://www.w3.org/1999/xhtml\">Dispensed 30 tablets = 30 day supply of valsartan 80 MG Oral Tablet [Diovan]</div>",
                    "status": "generated"
                },
                "whenHandedOver": "2008-12-05",
                "meta": {
                    "tag": [
                        {
                            "system": "https://smarthealthit.org/tags",
                            "code": "smart-7-2017"
                        }
                    ]
                }
            },
            "fullUrl": "/MedicationDispense/smart-MedicationDispense-524"
        },
        {
            "request": {
                "method": "PUT",
                "url": "MedicationDispense/smart-MedicationDispense-510"
            },
            "resource": {
                "authorizingPrescription": {
                    "reference": "MedicationRequest/smart-MedicationRequest-67"
                },
                "daysSupply": {
                    "code": "d",
                    "system": "http://unitsofmeasure.org",
                    "unit": "days",
                    "value": 30
                },
                "id": "smart-MedicationDispense-510",
                "medicationCodeableConcept": {
                    "coding": [
                        {
                            "code": "351761",
                            "display": "valsartan 80 MG Oral Tablet [Diovan]",
                            "system": "http://www.nlm.nih.gov/research/umls/rxnorm"
                        }
                    ],
                    "text": "valsartan 80 MG Oral Tablet [Diovan]"
                },
                "quantity": {
                    "code": "{tablets}",
                    "system": "http://unitsofmeasure.org",
                    "unit": "tablets",
                    "value": 30
                },
                "resourceType": "MedicationDispense",
                "status": "completed",
                "subject": {
                    "reference": "Patient/smart-935270"
                },
                "text": {
                    "div": "<div xmlns=\"http://www.w3.org/1999/xhtml\">Dispensed 30 tablets = 30 day supply of valsartan 80 MG Oral Tablet [Diovan]</div>",
                    "status": "generated"
                },
                "whenHandedOver": "2008-03-21",
                "meta": {
                    "tag": [
                        {
                            "system": "https://smarthealthit.org/tags",
                            "code": "smart-7-2017"
                        }
                    ]
                }
            },
            "fullUrl": "/MedicationDispense/smart-MedicationDispense-510"
        },
        {
            "request": {
                "method": "PUT",
                "url": "MedicationDispense/smart-MedicationDispense-508"
            },
            "resource": {
                "authorizingPrescription": {
                    "reference": "MedicationRequest/smart-MedicationRequest-67"
                },
                "daysSupply": {
                    "code": "d",
                    "system": "http://unitsofmeasure.org",
                    "unit": "days",
                    "value": 30
                },
                "id": "smart-MedicationDispense-508",
                "medicationCodeableConcept": {
                    "coding": [
                        {
                            "code": "351761",
                            "display": "valsartan 80 MG Oral Tablet [Diovan]",
                            "system": "http://www.nlm.nih.gov/research/umls/rxnorm"
                        }
                    ],
                    "text": "valsartan 80 MG Oral Tablet [Diovan]"
                },
                "quantity": {
                    "code": "{tablets}",
                    "system": "http://unitsofmeasure.org",
                    "unit": "tablets",
                    "value": 30
                },
                "resourceType": "MedicationDispense",
                "status": "completed",
                "subject": {
                    "reference": "Patient/smart-935270"
                },
                "text": {
                    "div": "<div xmlns=\"http://www.w3.org/1999/xhtml\">Dispensed 30 tablets = 30 day supply of valsartan 80 MG Oral Tablet [Diovan]</div>",
                    "status": "generated"
                },
                "whenHandedOver": "2008-01-20",
                "meta": {
                    "tag": [
                        {
                            "system": "https://smarthealthit.org/tags",
                            "code": "smart-7-2017"
                        }
                    ]
                }
            },
            "fullUrl": "/MedicationDispense/smart-MedicationDispense-508"
        },
        {
            "request": {
                "method": "PUT",
                "url": "MedicationDispense/smart-MedicationDispense-506"
            },
            "resource": {
                "authorizingPrescription": {
                    "reference": "MedicationRequest/smart-MedicationRequest-67"
                },
                "daysSupply": {
                    "code": "d",
                    "system": "http://unitsofmeasure.org",
                    "unit": "days",
                    "value": 30
                },
                "id": "smart-MedicationDispense-506",
                "medicationCodeableConcept": {
                    "coding": [
                        {
                            "code": "351761",
                            "display": "valsartan 80 MG Oral Tablet [Diovan]",
                            "system": "http://www.nlm.nih.gov/research/umls/rxnorm"
                        }
                    ],
                    "text": "valsartan 80 MG Oral Tablet [Diovan]"
                },
                "quantity": {
                    "code": "{tablets}",
                    "system": "http://unitsofmeasure.org",
                    "unit": "tablets",
                    "value": 30
                },
                "resourceType": "MedicationDispense",
                "status": "completed",
                "subject": {
                    "reference": "Patient/smart-935270"
                },
                "text": {
                    "div": "<div xmlns=\"http://www.w3.org/1999/xhtml\">Dispensed 30 tablets = 30 day supply of valsartan 80 MG Oral Tablet [Diovan]</div>",
                    "status": "generated"
                },
                "whenHandedOver": "2007-11-17",
                "meta": {
                    "tag": [
                        {
                            "system": "https://smarthealthit.org/tags",
                            "code": "smart-7-2017"
                        }
                    ]
                }
            },
            "fullUrl": "/MedicationDispense/smart-MedicationDispense-506"
        },
        {
            "request": {
                "method": "PUT",
                "url": "MedicationDispense/smart-MedicationDispense-530"
            },
            "resource": {
                "authorizingPrescription": {
                    "reference": "MedicationRequest/smart-MedicationRequest-67"
                },
                "daysSupply": {
                    "code": "d",
                    "system": "http://unitsofmeasure.org",
                    "unit": "days",
                    "value": 30
                },
                "id": "smart-MedicationDispense-530",
                "medicationCodeableConcept": {
                    "coding": [
                        {
                            "code": "351761",
                            "display": "valsartan 80 MG Oral Tablet [Diovan]",
                            "system": "http://www.nlm.nih.gov/research/umls/rxnorm"
                        }
                    ],
                    "text": "valsartan 80 MG Oral Tablet [Diovan]"
                },
                "quantity": {
                    "code": "{tablets}",
                    "system": "http://unitsofmeasure.org",
                    "unit": "tablets",
                    "value": 30
                },
                "resourceType": "MedicationDispense",
                "status": "completed",
                "subject": {
                    "reference": "Patient/smart-935270"
                },
                "text": {
                    "div": "<div xmlns=\"http://www.w3.org/1999/xhtml\">Dispensed 30 tablets = 30 day supply of valsartan 80 MG Oral Tablet [Diovan]</div>",
                    "status": "generated"
                },
                "whenHandedOver": "2009-03-09",
                "meta": {
                    "tag": [
                        {
                            "system": "https://smarthealthit.org/tags",
                            "code": "smart-7-2017"
                        }
                    ]
                }
            },
            "fullUrl": "/MedicationDispense/smart-MedicationDispense-530"
        },
        {
            "request": {
                "method": "PUT",
                "url": "MedicationRequest/smart-MedicationRequest-68"
            },
            "resource": {
                "dispenseRequest": {
                    "expectedSupplyDuration": {
                        "code": "d",
                        "system": "http://unitsofmeasure.org",
                        "unit": "days",
                        "value": 30
                    },
                    "numberOfRepeatsAllowed": 1,
                    "quantity": {
                        "code": "{tablet}",
                        "system": "http://unitsofmeasure.org",
                        "unit": "{tablet}",
                        "value": 30
                    }
                },
                "dosageInstruction": [
                    {
                        "doseQuantity": {
                            "code": "{tablet}",
                            "system": "http://unitsofmeasure.org",
                            "unit": "{tablet}",
                            "value": 1
                        },
                        "text": "1 qhs",
                        "timing": {
                            "repeat": {
                                "boundsPeriod": {
                                    "start": "2007-10-17"
                                },
                                "frequency": 1,
                                "period": 1,
                                "periodUnit": "d"
                            }
                        }
                    }
                ],
                "id": "smart-MedicationRequest-68",
                "intent": "order",
                "medicationCodeableConcept": {
                    "coding": [
                        {
                            "code": "617318",
                            "display": "atorvastatin 20 MG Oral Tablet [Lipitor]",
                            "system": "http://www.nlm.nih.gov/research/umls/rxnorm"
                        }
                    ],
                    "text": "atorvastatin 20 MG Oral Tablet [Lipitor]"
                },
                "resourceType": "MedicationRequest",
                "status": "active",
                "subject": {
                    "reference": "Patient/smart-935270"
                },
                "text": {
                    "div": "<div xmlns=\"http://www.w3.org/1999/xhtml\">atorvastatin 20 MG Oral Tablet [Lipitor] (rxnorm: 617318)</div>",
                    "status": "generated"
                },
                "meta": {
                    "tag": [
                        {
                            "system": "https://smarthealthit.org/tags",
                            "code": "smart-7-2017"
                        }
                    ]
                }
            },
            "fullUrl": "/MedicationRequest/smart-MedicationRequest-68"
        },
        {
            "request": {
                "method": "PUT",
                "url": "MedicationDispense/smart-MedicationDispense-445"
            },
            "resource": {
                "authorizingPrescription": {
                    "reference": "MedicationRequest/smart-MedicationRequest-68"
                },
                "daysSupply": {
                    "code": "d",
                    "system": "http://unitsofmeasure.org",
                    "unit": "days",
                    "value": 30
                },
                "id": "smart-MedicationDispense-445",
                "medicationCodeableConcept": {
                    "coding": [
                        {
                            "code": "617318",
                            "display": "atorvastatin 20 MG Oral Tablet [Lipitor]",
                            "system": "http://www.nlm.nih.gov/research/umls/rxnorm"
                        }
                    ],
                    "text": "atorvastatin 20 MG Oral Tablet [Lipitor]"
                },
                "quantity": {
                    "code": "{tablets}",
                    "system": "http://unitsofmeasure.org",
                    "unit": "tablets",
                    "value": 30
                },
                "resourceType": "MedicationDispense",
                "status": "completed",
                "subject": {
                    "reference": "Patient/smart-935270"
                },
                "text": {
                    "div": "<div xmlns=\"http://www.w3.org/1999/xhtml\">Dispensed 30 tablets = 30 day supply of atorvastatin 20 MG Oral Tablet [Lipitor]</div>",
                    "status": "generated"
                },
                "whenHandedOver": "2008-09-09",
                "meta": {
                    "tag": [
                        {
                            "system": "https://smarthealthit.org/tags",
                            "code": "smart-7-2017"
                        }
                    ]
                }
            },
            "fullUrl": "/MedicationDispense/smart-MedicationDispense-445"
        },
        {
            "request": {
                "method": "PUT",
                "url": "MedicationDispense/smart-MedicationDispense-463"
            },
            "resource": {
                "authorizingPrescription": {
                    "reference": "MedicationRequest/smart-MedicationRequest-68"
                },
                "daysSupply": {
                    "code": "d",
                    "system": "http://unitsofmeasure.org",
                    "unit": "days",
                    "value": 30
                },
                "id": "smart-MedicationDispense-463",
                "medicationCodeableConcept": {
                    "coding": [
                        {
                            "code": "617318",
                            "display": "atorvastatin 20 MG Oral Tablet [Lipitor]",
                            "system": "http://www.nlm.nih.gov/research/umls/rxnorm"
                        }
                    ],
                    "text": "atorvastatin 20 MG Oral Tablet [Lipitor]"
                },
                "quantity": {
                    "code": "{tablets}",
                    "system": "http://unitsofmeasure.org",
                    "unit": "tablets",
                    "value": 30
                },
                "resourceType": "MedicationDispense",
                "status": "completed",
                "subject": {
                    "reference": "Patient/smart-935270"
                },
                "text": {
                    "div": "<div xmlns=\"http://www.w3.org/1999/xhtml\">Dispensed 30 tablets = 30 day supply of atorvastatin 20 MG Oral Tablet [Lipitor]</div>",
                    "status": "generated"
                },
                "whenHandedOver": "2009-06-05",
                "meta": {
                    "tag": [
                        {
                            "system": "https://smarthealthit.org/tags",
                            "code": "smart-7-2017"
                        }
                    ]
                }
            },
            "fullUrl": "/MedicationDispense/smart-MedicationDispense-463"
        },
        {
            "request": {
                "method": "PUT",
                "url": "MedicationDispense/smart-MedicationDispense-435"
            },
            "resource": {
                "authorizingPrescription": {
                    "reference": "MedicationRequest/smart-MedicationRequest-68"
                },
                "daysSupply": {
                    "code": "d",
                    "system": "http://unitsofmeasure.org",
                    "unit": "days",
                    "value": 30
                },
                "id": "smart-MedicationDispense-435",
                "medicationCodeableConcept": {
                    "coding": [
                        {
                            "code": "617318",
                            "display": "atorvastatin 20 MG Oral Tablet [Lipitor]",
                            "system": "http://www.nlm.nih.gov/research/umls/rxnorm"
                        }
                    ],
                    "text": "atorvastatin 20 MG Oral Tablet [Lipitor]"
                },
                "quantity": {
                    "code": "{tablets}",
                    "system": "http://unitsofmeasure.org",
                    "unit": "tablets",
                    "value": 30
                },
                "resourceType": "MedicationDispense",
                "status": "completed",
                "subject": {
                    "reference": "Patient/smart-935270"
                },
                "text": {
                    "div": "<div xmlns=\"http://www.w3.org/1999/xhtml\">Dispensed 30 tablets = 30 day supply of atorvastatin 20 MG Oral Tablet [Lipitor]</div>",
                    "status": "generated"
                },
                "whenHandedOver": "2008-02-18",
                "meta": {
                    "tag": [
                        {
                            "system": "https://smarthealthit.org/tags",
                            "code": "smart-7-2017"
                        }
                    ]
                }
            },
            "fullUrl": "/MedicationDispense/smart-MedicationDispense-435"
        },
        {
            "request": {
                "method": "PUT",
                "url": "MedicationDispense/smart-MedicationDispense-430"
            },
            "resource": {
                "authorizingPrescription": {
                    "reference": "MedicationRequest/smart-MedicationRequest-68"
                },
                "daysSupply": {
                    "code": "d",
                    "system": "http://unitsofmeasure.org",
                    "unit": "days",
                    "value": 30
                },
                "id": "smart-MedicationDispense-430",
                "medicationCodeableConcept": {
                    "coding": [
                        {
                            "code": "617318",
                            "display": "atorvastatin 20 MG Oral Tablet [Lipitor]",
                            "system": "http://www.nlm.nih.gov/research/umls/rxnorm"
                        }
                    ],
                    "text": "atorvastatin 20 MG Oral Tablet [Lipitor]"
                },
                "quantity": {
                    "code": "{tablets}",
                    "system": "http://unitsofmeasure.org",
                    "unit": "tablets",
                    "value": 30
                },
                "resourceType": "MedicationDispense",
                "status": "completed",
                "subject": {
                    "reference": "Patient/smart-935270"
                },
                "text": {
                    "div": "<div xmlns=\"http://www.w3.org/1999/xhtml\">Dispensed 30 tablets = 30 day supply of atorvastatin 20 MG Oral Tablet [Lipitor]</div>",
                    "status": "generated"
                },
                "whenHandedOver": "2007-10-19",
                "meta": {
                    "tag": [
                        {
                            "system": "https://smarthealthit.org/tags",
                            "code": "smart-7-2017"
                        }
                    ]
                }
            },
            "fullUrl": "/MedicationDispense/smart-MedicationDispense-430"
        },
        {
            "request": {
                "method": "PUT",
                "url": "MedicationDispense/smart-MedicationDispense-436"
            },
            "resource": {
                "authorizingPrescription": {
                    "reference": "MedicationRequest/smart-MedicationRequest-68"
                },
                "daysSupply": {
                    "code": "d",
                    "system": "http://unitsofmeasure.org",
                    "unit": "days",
                    "value": 30
                },
                "id": "smart-MedicationDispense-436",
                "medicationCodeableConcept": {
                    "coding": [
                        {
                            "code": "617318",
                            "display": "atorvastatin 20 MG Oral Tablet [Lipitor]",
                            "system": "http://www.nlm.nih.gov/research/umls/rxnorm"
                        }
                    ],
                    "text": "atorvastatin 20 MG Oral Tablet [Lipitor]"
                },
                "quantity": {
                    "code": "{tablets}",
                    "system": "http://unitsofmeasure.org",
                    "unit": "tablets",
                    "value": 30
                },
                "resourceType": "MedicationDispense",
                "status": "completed",
                "subject": {
                    "reference": "Patient/smart-935270"
                },
                "text": {
                    "div": "<div xmlns=\"http://www.w3.org/1999/xhtml\">Dispensed 30 tablets = 30 day supply of atorvastatin 20 MG Oral Tablet [Lipitor]</div>",
                    "status": "generated"
                },
                "whenHandedOver": "2008-03-22",
                "meta": {
                    "tag": [
                        {
                            "system": "https://smarthealthit.org/tags",
                            "code": "smart-7-2017"
                        }
                    ]
                }
            },
            "fullUrl": "/MedicationDispense/smart-MedicationDispense-436"
        },
        {
            "request": {
                "method": "PUT",
                "url": "MedicationDispense/smart-MedicationDispense-429"
            },
            "resource": {
                "authorizingPrescription": {
                    "reference": "MedicationRequest/smart-MedicationRequest-68"
                },
                "daysSupply": {
                    "code": "d",
                    "system": "http://unitsofmeasure.org",
                    "unit": "days",
                    "value": 30
                },
                "id": "smart-MedicationDispense-429",
                "medicationCodeableConcept": {
                    "coding": [
                        {
                            "code": "617318",
                            "display": "atorvastatin 20 MG Oral Tablet [Lipitor]",
                            "system": "http://www.nlm.nih.gov/research/umls/rxnorm"
                        }
                    ],
                    "text": "atorvastatin 20 MG Oral Tablet [Lipitor]"
                },
                "quantity": {
                    "code": "{tablets}",
                    "system": "http://unitsofmeasure.org",
                    "unit": "tablets",
                    "value": 30
                },
                "resourceType": "MedicationDispense",
                "status": "completed",
                "subject": {
                    "reference": "Patient/smart-935270"
                },
                "text": {
                    "div": "<div xmlns=\"http://www.w3.org/1999/xhtml\">Dispensed 30 tablets = 30 day supply of atorvastatin 20 MG Oral Tablet [Lipitor]</div>",
                    "status": "generated"
                },
                "whenHandedOver": "2007-10-17",
                "meta": {
                    "tag": [
                        {
                            "system": "https://smarthealthit.org/tags",
                            "code": "smart-7-2017"
                        }
                    ]
                }
            },
            "fullUrl": "/MedicationDispense/smart-MedicationDispense-429"
        },
        {
            "request": {
                "method": "PUT",
                "url": "MedicationDispense/smart-MedicationDispense-447"
            },
            "resource": {
                "authorizingPrescription": {
                    "reference": "MedicationRequest/smart-MedicationRequest-68"
                },
                "daysSupply": {
                    "code": "d",
                    "system": "http://unitsofmeasure.org",
                    "unit": "days",
                    "value": 30
                },
                "id": "smart-MedicationDispense-447",
                "medicationCodeableConcept": {
                    "coding": [
                        {
                            "code": "617318",
                            "display": "atorvastatin 20 MG Oral Tablet [Lipitor]",
                            "system": "http://www.nlm.nih.gov/research/umls/rxnorm"
                        }
                    ],
                    "text": "atorvastatin 20 MG Oral Tablet [Lipitor]"
                },
                "quantity": {
                    "code": "{tablets}",
                    "system": "http://unitsofmeasure.org",
                    "unit": "tablets",
                    "value": 30
                },
                "resourceType": "MedicationDispense",
                "status": "completed",
                "subject": {
                    "reference": "Patient/smart-935270"
                },
                "text": {
                    "div": "<div xmlns=\"http://www.w3.org/1999/xhtml\">Dispensed 30 tablets = 30 day supply of atorvastatin 20 MG Oral Tablet [Lipitor]</div>",
                    "status": "generated"
                },
                "whenHandedOver": "2008-10-07",
                "meta": {
                    "tag": [
                        {
                            "system": "https://smarthealthit.org/tags",
                            "code": "smart-7-2017"
                        }
                    ]
                }
            },
            "fullUrl": "/MedicationDispense/smart-MedicationDispense-447"
        },
        {
            "request": {
                "method": "PUT",
                "url": "MedicationDispense/smart-MedicationDispense-441"
            },
            "resource": {
                "authorizingPrescription": {
                    "reference": "MedicationRequest/smart-MedicationRequest-68"
                },
                "daysSupply": {
                    "code": "d",
                    "system": "http://unitsofmeasure.org",
                    "unit": "days",
                    "value": 30
                },
                "id": "smart-MedicationDispense-441",
                "medicationCodeableConcept": {
                    "coding": [
                        {
                            "code": "617318",
                            "display": "atorvastatin 20 MG Oral Tablet [Lipitor]",
                            "system": "http://www.nlm.nih.gov/research/umls/rxnorm"
                        }
                    ],
                    "text": "atorvastatin 20 MG Oral Tablet [Lipitor]"
                },
                "quantity": {
                    "code": "{tablets}",
                    "system": "http://unitsofmeasure.org",
                    "unit": "tablets",
                    "value": 30
                },
                "resourceType": "MedicationDispense",
                "status": "completed",
                "subject": {
                    "reference": "Patient/smart-935270"
                },
                "text": {
                    "div": "<div xmlns=\"http://www.w3.org/1999/xhtml\">Dispensed 30 tablets = 30 day supply of atorvastatin 20 MG Oral Tablet [Lipitor]</div>",
                    "status": "generated"
                },
                "whenHandedOver": "2008-07-15",
                "meta": {
                    "tag": [
                        {
                            "system": "https://smarthealthit.org/tags",
                            "code": "smart-7-2017"
                        }
                    ]
                }
            },
            "fullUrl": "/MedicationDispense/smart-MedicationDispense-441"
        },
        {
            "request": {
                "method": "PUT",
                "url": "MedicationDispense/smart-MedicationDispense-437"
            },
            "resource": {
                "authorizingPrescription": {
                    "reference": "MedicationRequest/smart-MedicationRequest-68"
                },
                "daysSupply": {
                    "code": "d",
                    "system": "http://unitsofmeasure.org",
                    "unit": "days",
                    "value": 30
                },
                "id": "smart-MedicationDispense-437",
                "medicationCodeableConcept": {
                    "coding": [
                        {
                            "code": "617318",
                            "display": "atorvastatin 20 MG Oral Tablet [Lipitor]",
                            "system": "http://www.nlm.nih.gov/research/umls/rxnorm"
                        }
                    ],
                    "text": "atorvastatin 20 MG Oral Tablet [Lipitor]"
                },
                "quantity": {
                    "code": "{tablets}",
                    "system": "http://unitsofmeasure.org",
                    "unit": "tablets",
                    "value": 30
                },
                "resourceType": "MedicationDispense",
                "status": "completed",
                "subject": {
                    "reference": "Patient/smart-935270"
                },
                "text": {
                    "div": "<div xmlns=\"http://www.w3.org/1999/xhtml\">Dispensed 30 tablets = 30 day supply of atorvastatin 20 MG Oral Tablet [Lipitor]</div>",
                    "status": "generated"
                },
                "whenHandedOver": "2008-04-17",
                "meta": {
                    "tag": [
                        {
                            "system": "https://smarthealthit.org/tags",
                            "code": "smart-7-2017"
                        }
                    ]
                }
            },
            "fullUrl": "/MedicationDispense/smart-MedicationDispense-437"
        },
        {
            "request": {
                "method": "PUT",
                "url": "MedicationDispense/smart-MedicationDispense-443"
            },
            "resource": {
                "authorizingPrescription": {
                    "reference": "MedicationRequest/smart-MedicationRequest-68"
                },
                "daysSupply": {
                    "code": "d",
                    "system": "http://unitsofmeasure.org",
                    "unit": "days",
                    "value": 30
                },
                "id": "smart-MedicationDispense-443",
                "medicationCodeableConcept": {
                    "coding": [
                        {
                            "code": "617318",
                            "display": "atorvastatin 20 MG Oral Tablet [Lipitor]",
                            "system": "http://www.nlm.nih.gov/research/umls/rxnorm"
                        }
                    ],
                    "text": "atorvastatin 20 MG Oral Tablet [Lipitor]"
                },
                "quantity": {
                    "code": "{tablets}",
                    "system": "http://unitsofmeasure.org",
                    "unit": "tablets",
                    "value": 30
                },
                "resourceType": "MedicationDispense",
                "status": "completed",
                "subject": {
                    "reference": "Patient/smart-935270"
                },
                "text": {
                    "div": "<div xmlns=\"http://www.w3.org/1999/xhtml\">Dispensed 30 tablets = 30 day supply of atorvastatin 20 MG Oral Tablet [Lipitor]</div>",
                    "status": "generated"
                },
                "whenHandedOver": "2008-08-11",
                "meta": {
                    "tag": [
                        {
                            "system": "https://smarthealthit.org/tags",
                            "code": "smart-7-2017"
                        }
                    ]
                }
            },
            "fullUrl": "/MedicationDispense/smart-MedicationDispense-443"
        },
        {
            "request": {
                "method": "PUT",
                "url": "MedicationDispense/smart-MedicationDispense-455"
            },
            "resource": {
                "authorizingPrescription": {
                    "reference": "MedicationRequest/smart-MedicationRequest-68"
                },
                "daysSupply": {
                    "code": "d",
                    "system": "http://unitsofmeasure.org",
                    "unit": "days",
                    "value": 30
                },
                "id": "smart-MedicationDispense-455",
                "medicationCodeableConcept": {
                    "coding": [
                        {
                            "code": "617318",
                            "display": "atorvastatin 20 MG Oral Tablet [Lipitor]",
                            "system": "http://www.nlm.nih.gov/research/umls/rxnorm"
                        }
                    ],
                    "text": "atorvastatin 20 MG Oral Tablet [Lipitor]"
                },
                "quantity": {
                    "code": "{tablets}",
                    "system": "http://unitsofmeasure.org",
                    "unit": "tablets",
                    "value": 30
                },
                "resourceType": "MedicationDispense",
                "status": "completed",
                "subject": {
                    "reference": "Patient/smart-935270"
                },
                "text": {
                    "div": "<div xmlns=\"http://www.w3.org/1999/xhtml\">Dispensed 30 tablets = 30 day supply of atorvastatin 20 MG Oral Tablet [Lipitor]</div>",
                    "status": "generated"
                },
                "whenHandedOver": "2009-02-11",
                "meta": {
                    "tag": [
                        {
                            "system": "https://smarthealthit.org/tags",
                            "code": "smart-7-2017"
                        }
                    ]
                }
            },
            "fullUrl": "/MedicationDispense/smart-MedicationDispense-455"
        },
        {
            "request": {
                "method": "PUT",
                "url": "MedicationDispense/smart-MedicationDispense-451"
            },
            "resource": {
                "authorizingPrescription": {
                    "reference": "MedicationRequest/smart-MedicationRequest-68"
                },
                "daysSupply": {
                    "code": "d",
                    "system": "http://unitsofmeasure.org",
                    "unit": "days",
                    "value": 30
                },
                "id": "smart-MedicationDispense-451",
                "medicationCodeableConcept": {
                    "coding": [
                        {
                            "code": "617318",
                            "display": "atorvastatin 20 MG Oral Tablet [Lipitor]",
                            "system": "http://www.nlm.nih.gov/research/umls/rxnorm"
                        }
                    ],
                    "text": "atorvastatin 20 MG Oral Tablet [Lipitor]"
                },
                "quantity": {
                    "code": "{tablets}",
                    "system": "http://unitsofmeasure.org",
                    "unit": "tablets",
                    "value": 30
                },
                "resourceType": "MedicationDispense",
                "status": "completed",
                "subject": {
                    "reference": "Patient/smart-935270"
                },
                "text": {
                    "div": "<div xmlns=\"http://www.w3.org/1999/xhtml\">Dispensed 30 tablets = 30 day supply of atorvastatin 20 MG Oral Tablet [Lipitor]</div>",
                    "status": "generated"
                },
                "whenHandedOver": "2008-12-05",
                "meta": {
                    "tag": [
                        {
                            "system": "https://smarthealthit.org/tags",
                            "code": "smart-7-2017"
                        }
                    ]
                }
            },
            "fullUrl": "/MedicationDispense/smart-MedicationDispense-451"
        },
        {
            "request": {
                "method": "PUT",
                "url": "MedicationDispense/smart-MedicationDispense-438"
            },
            "resource": {
                "authorizingPrescription": {
                    "reference": "MedicationRequest/smart-MedicationRequest-68"
                },
                "daysSupply": {
                    "code": "d",
                    "system": "http://unitsofmeasure.org",
                    "unit": "days",
                    "value": 30
                },
                "id": "smart-MedicationDispense-438",
                "medicationCodeableConcept": {
                    "coding": [
                        {
                            "code": "617318",
                            "display": "atorvastatin 20 MG Oral Tablet [Lipitor]",
                            "system": "http://www.nlm.nih.gov/research/umls/rxnorm"
                        }
                    ],
                    "text": "atorvastatin 20 MG Oral Tablet [Lipitor]"
                },
                "quantity": {
                    "code": "{tablets}",
                    "system": "http://unitsofmeasure.org",
                    "unit": "tablets",
                    "value": 30
                },
                "resourceType": "MedicationDispense",
                "status": "completed",
                "subject": {
                    "reference": "Patient/smart-935270"
                },
                "text": {
                    "div": "<div xmlns=\"http://www.w3.org/1999/xhtml\">Dispensed 30 tablets = 30 day supply of atorvastatin 20 MG Oral Tablet [Lipitor]</div>",
                    "status": "generated"
                },
                "whenHandedOver": "2008-05-14",
                "meta": {
                    "tag": [
                        {
                            "system": "https://smarthealthit.org/tags",
                            "code": "smart-7-2017"
                        }
                    ]
                }
            },
            "fullUrl": "/MedicationDispense/smart-MedicationDispense-438"
        },
        {
            "request": {
                "method": "PUT",
                "url": "MedicationDispense/smart-MedicationDispense-453"
            },
            "resource": {
                "authorizingPrescription": {
                    "reference": "MedicationRequest/smart-MedicationRequest-68"
                },
                "daysSupply": {
                    "code": "d",
                    "system": "http://unitsofmeasure.org",
                    "unit": "days",
                    "value": 30
                },
                "id": "smart-MedicationDispense-453",
                "medicationCodeableConcept": {
                    "coding": [
                        {
                            "code": "617318",
                            "display": "atorvastatin 20 MG Oral Tablet [Lipitor]",
                            "system": "http://www.nlm.nih.gov/research/umls/rxnorm"
                        }
                    ],
                    "text": "atorvastatin 20 MG Oral Tablet [Lipitor]"
                },
                "quantity": {
                    "code": "{tablets}",
                    "system": "http://unitsofmeasure.org",
                    "unit": "tablets",
                    "value": 30
                },
                "resourceType": "MedicationDispense",
                "status": "completed",
                "subject": {
                    "reference": "Patient/smart-935270"
                },
                "text": {
                    "div": "<div xmlns=\"http://www.w3.org/1999/xhtml\">Dispensed 30 tablets = 30 day supply of atorvastatin 20 MG Oral Tablet [Lipitor]</div>",
                    "status": "generated"
                },
                "whenHandedOver": "2009-01-09",
                "meta": {
                    "tag": [
                        {
                            "system": "https://smarthealthit.org/tags",
                            "code": "smart-7-2017"
                        }
                    ]
                }
            },
            "fullUrl": "/MedicationDispense/smart-MedicationDispense-453"
        },
        {
            "request": {
                "method": "PUT",
                "url": "MedicationDispense/smart-MedicationDispense-434"
            },
            "resource": {
                "authorizingPrescription": {
                    "reference": "MedicationRequest/smart-MedicationRequest-68"
                },
                "daysSupply": {
                    "code": "d",
                    "system": "http://unitsofmeasure.org",
                    "unit": "days",
                    "value": 30
                },
                "id": "smart-MedicationDispense-434",
                "medicationCodeableConcept": {
                    "coding": [
                        {
                            "code": "617318",
                            "display": "atorvastatin 20 MG Oral Tablet [Lipitor]",
                            "system": "http://www.nlm.nih.gov/research/umls/rxnorm"
                        }
                    ],
                    "text": "atorvastatin 20 MG Oral Tablet [Lipitor]"
                },
                "quantity": {
                    "code": "{tablets}",
                    "system": "http://unitsofmeasure.org",
                    "unit": "tablets",
                    "value": 30
                },
                "resourceType": "MedicationDispense",
                "status": "completed",
                "subject": {
                    "reference": "Patient/smart-935270"
                },
                "text": {
                    "div": "<div xmlns=\"http://www.w3.org/1999/xhtml\">Dispensed 30 tablets = 30 day supply of atorvastatin 20 MG Oral Tablet [Lipitor]</div>",
                    "status": "generated"
                },
                "whenHandedOver": "2008-02-08",
                "meta": {
                    "tag": [
                        {
                            "system": "https://smarthealthit.org/tags",
                            "code": "smart-7-2017"
                        }
                    ]
                }
            },
            "fullUrl": "/MedicationDispense/smart-MedicationDispense-434"
        },
        {
            "request": {
                "method": "PUT",
                "url": "MedicationDispense/smart-MedicationDispense-466"
            },
            "resource": {
                "authorizingPrescription": {
                    "reference": "MedicationRequest/smart-MedicationRequest-68"
                },
                "daysSupply": {
                    "code": "d",
                    "system": "http://unitsofmeasure.org",
                    "unit": "days",
                    "value": 30
                },
                "id": "smart-MedicationDispense-466",
                "medicationCodeableConcept": {
                    "coding": [
                        {
                            "code": "617318",
                            "display": "atorvastatin 20 MG Oral Tablet [Lipitor]",
                            "system": "http://www.nlm.nih.gov/research/umls/rxnorm"
                        }
                    ],
                    "text": "atorvastatin 20 MG Oral Tablet [Lipitor]"
                },
                "quantity": {
                    "code": "{tablets}",
                    "system": "http://unitsofmeasure.org",
                    "unit": "tablets",
                    "value": 30
                },
                "resourceType": "MedicationDispense",
                "status": "completed",
                "subject": {
                    "reference": "Patient/smart-935270"
                },
                "text": {
                    "div": "<div xmlns=\"http://www.w3.org/1999/xhtml\">Dispensed 30 tablets = 30 day supply of atorvastatin 20 MG Oral Tablet [Lipitor]</div>",
                    "status": "generated"
                },
                "whenHandedOver": "2009-08-07",
                "meta": {
                    "tag": [
                        {
                            "system": "https://smarthealthit.org/tags",
                            "code": "smart-7-2017"
                        }
                    ]
                }
            },
            "fullUrl": "/MedicationDispense/smart-MedicationDispense-466"
        },
        {
            "request": {
                "method": "PUT",
                "url": "MedicationDispense/smart-MedicationDispense-459"
            },
            "resource": {
                "authorizingPrescription": {
                    "reference": "MedicationRequest/smart-MedicationRequest-68"
                },
                "daysSupply": {
                    "code": "d",
                    "system": "http://unitsofmeasure.org",
                    "unit": "days",
                    "value": 30
                },
                "id": "smart-MedicationDispense-459",
                "medicationCodeableConcept": {
                    "coding": [
                        {
                            "code": "617318",
                            "display": "atorvastatin 20 MG Oral Tablet [Lipitor]",
                            "system": "http://www.nlm.nih.gov/research/umls/rxnorm"
                        }
                    ],
                    "text": "atorvastatin 20 MG Oral Tablet [Lipitor]"
                },
                "quantity": {
                    "code": "{tablets}",
                    "system": "http://unitsofmeasure.org",
                    "unit": "tablets",
                    "value": 30
                },
                "resourceType": "MedicationDispense",
                "status": "completed",
                "subject": {
                    "reference": "Patient/smart-935270"
                },
                "text": {
                    "div": "<div xmlns=\"http://www.w3.org/1999/xhtml\">Dispensed 30 tablets = 30 day supply of atorvastatin 20 MG Oral Tablet [Lipitor]</div>",
                    "status": "generated"
                },
                "whenHandedOver": "2009-04-07",
                "meta": {
                    "tag": [
                        {
                            "system": "https://smarthealthit.org/tags",
                            "code": "smart-7-2017"
                        }
                    ]
                }
            },
            "fullUrl": "/MedicationDispense/smart-MedicationDispense-459"
        },
        {
            "request": {
                "method": "PUT",
                "url": "MedicationDispense/smart-MedicationDispense-465"
            },
            "resource": {
                "authorizingPrescription": {
                    "reference": "MedicationRequest/smart-MedicationRequest-68"
                },
                "daysSupply": {
                    "code": "d",
                    "system": "http://unitsofmeasure.org",
                    "unit": "days",
                    "value": 30
                },
                "id": "smart-MedicationDispense-465",
                "medicationCodeableConcept": {
                    "coding": [
                        {
                            "code": "617318",
                            "display": "atorvastatin 20 MG Oral Tablet [Lipitor]",
                            "system": "http://www.nlm.nih.gov/research/umls/rxnorm"
                        }
                    ],
                    "text": "atorvastatin 20 MG Oral Tablet [Lipitor]"
                },
                "quantity": {
                    "code": "{tablets}",
                    "system": "http://unitsofmeasure.org",
                    "unit": "tablets",
                    "value": 30
                },
                "resourceType": "MedicationDispense",
                "status": "completed",
                "subject": {
                    "reference": "Patient/smart-935270"
                },
                "text": {
                    "div": "<div xmlns=\"http://www.w3.org/1999/xhtml\">Dispensed 30 tablets = 30 day supply of atorvastatin 20 MG Oral Tablet [Lipitor]</div>",
                    "status": "generated"
                },
                "whenHandedOver": "2009-07-07",
                "meta": {
                    "tag": [
                        {
                            "system": "https://smarthealthit.org/tags",
                            "code": "smart-7-2017"
                        }
                    ]
                }
            },
            "fullUrl": "/MedicationDispense/smart-MedicationDispense-465"
        },
        {
            "request": {
                "method": "PUT",
                "url": "MedicationDispense/smart-MedicationDispense-440"
            },
            "resource": {
                "authorizingPrescription": {
                    "reference": "MedicationRequest/smart-MedicationRequest-68"
                },
                "daysSupply": {
                    "code": "d",
                    "system": "http://unitsofmeasure.org",
                    "unit": "days",
                    "value": 30
                },
                "id": "smart-MedicationDispense-440",
                "medicationCodeableConcept": {
                    "coding": [
                        {
                            "code": "617318",
                            "display": "atorvastatin 20 MG Oral Tablet [Lipitor]",
                            "system": "http://www.nlm.nih.gov/research/umls/rxnorm"
                        }
                    ],
                    "text": "atorvastatin 20 MG Oral Tablet [Lipitor]"
                },
                "quantity": {
                    "code": "{tablets}",
                    "system": "http://unitsofmeasure.org",
                    "unit": "tablets",
                    "value": 30
                },
                "resourceType": "MedicationDispense",
                "status": "completed",
                "subject": {
                    "reference": "Patient/smart-935270"
                },
                "text": {
                    "div": "<div xmlns=\"http://www.w3.org/1999/xhtml\">Dispensed 30 tablets = 30 day supply of atorvastatin 20 MG Oral Tablet [Lipitor]</div>",
                    "status": "generated"
                },
                "whenHandedOver": "2008-06-17",
                "meta": {
                    "tag": [
                        {
                            "system": "https://smarthealthit.org/tags",
                            "code": "smart-7-2017"
                        }
                    ]
                }
            },
            "fullUrl": "/MedicationDispense/smart-MedicationDispense-440"
        },
        {
            "request": {
                "method": "PUT",
                "url": "MedicationDispense/smart-MedicationDispense-449"
            },
            "resource": {
                "authorizingPrescription": {
                    "reference": "MedicationRequest/smart-MedicationRequest-68"
                },
                "daysSupply": {
                    "code": "d",
                    "system": "http://unitsofmeasure.org",
                    "unit": "days",
                    "value": 30
                },
                "id": "smart-MedicationDispense-449",
                "medicationCodeableConcept": {
                    "coding": [
                        {
                            "code": "617318",
                            "display": "atorvastatin 20 MG Oral Tablet [Lipitor]",
                            "system": "http://www.nlm.nih.gov/research/umls/rxnorm"
                        }
                    ],
                    "text": "atorvastatin 20 MG Oral Tablet [Lipitor]"
                },
                "quantity": {
                    "code": "{tablets}",
                    "system": "http://unitsofmeasure.org",
                    "unit": "tablets",
                    "value": 30
                },
                "resourceType": "MedicationDispense",
                "status": "completed",
                "subject": {
                    "reference": "Patient/smart-935270"
                },
                "text": {
                    "div": "<div xmlns=\"http://www.w3.org/1999/xhtml\">Dispensed 30 tablets = 30 day supply of atorvastatin 20 MG Oral Tablet [Lipitor]</div>",
                    "status": "generated"
                },
                "whenHandedOver": "2008-11-05",
                "meta": {
                    "tag": [
                        {
                            "system": "https://smarthealthit.org/tags",
                            "code": "smart-7-2017"
                        }
                    ]
                }
            },
            "fullUrl": "/MedicationDispense/smart-MedicationDispense-449"
        },
        {
            "request": {
                "method": "PUT",
                "url": "MedicationDispense/smart-MedicationDispense-433"
            },
            "resource": {
                "authorizingPrescription": {
                    "reference": "MedicationRequest/smart-MedicationRequest-68"
                },
                "daysSupply": {
                    "code": "d",
                    "system": "http://unitsofmeasure.org",
                    "unit": "days",
                    "value": 30
                },
                "id": "smart-MedicationDispense-433",
                "medicationCodeableConcept": {
                    "coding": [
                        {
                            "code": "617318",
                            "display": "atorvastatin 20 MG Oral Tablet [Lipitor]",
                            "system": "http://www.nlm.nih.gov/research/umls/rxnorm"
                        }
                    ],
                    "text": "atorvastatin 20 MG Oral Tablet [Lipitor]"
                },
                "quantity": {
                    "code": "{tablets}",
                    "system": "http://unitsofmeasure.org",
                    "unit": "tablets",
                    "value": 30
                },
                "resourceType": "MedicationDispense",
                "status": "completed",
                "subject": {
                    "reference": "Patient/smart-935270"
                },
                "text": {
                    "div": "<div xmlns=\"http://www.w3.org/1999/xhtml\">Dispensed 30 tablets = 30 day supply of atorvastatin 20 MG Oral Tablet [Lipitor]</div>",
                    "status": "generated"
                },
                "whenHandedOver": "2008-01-12",
                "meta": {
                    "tag": [
                        {
                            "system": "https://smarthealthit.org/tags",
                            "code": "smart-7-2017"
                        }
                    ]
                }
            },
            "fullUrl": "/MedicationDispense/smart-MedicationDispense-433"
        },
        {
            "request": {
                "method": "PUT",
                "url": "MedicationDispense/smart-MedicationDispense-432"
            },
            "resource": {
                "authorizingPrescription": {
                    "reference": "MedicationRequest/smart-MedicationRequest-68"
                },
                "daysSupply": {
                    "code": "d",
                    "system": "http://unitsofmeasure.org",
                    "unit": "days",
                    "value": 30
                },
                "id": "smart-MedicationDispense-432",
                "medicationCodeableConcept": {
                    "coding": [
                        {
                            "code": "617318",
                            "display": "atorvastatin 20 MG Oral Tablet [Lipitor]",
                            "system": "http://www.nlm.nih.gov/research/umls/rxnorm"
                        }
                    ],
                    "text": "atorvastatin 20 MG Oral Tablet [Lipitor]"
                },
                "quantity": {
                    "code": "{tablets}",
                    "system": "http://unitsofmeasure.org",
                    "unit": "tablets",
                    "value": 30
                },
                "resourceType": "MedicationDispense",
                "status": "completed",
                "subject": {
                    "reference": "Patient/smart-935270"
                },
                "text": {
                    "div": "<div xmlns=\"http://www.w3.org/1999/xhtml\">Dispensed 30 tablets = 30 day supply of atorvastatin 20 MG Oral Tablet [Lipitor]</div>",
                    "status": "generated"
                },
                "whenHandedOver": "2007-12-17",
                "meta": {
                    "tag": [
                        {
                            "system": "https://smarthealthit.org/tags",
                            "code": "smart-7-2017"
                        }
                    ]
                }
            },
            "fullUrl": "/MedicationDispense/smart-MedicationDispense-432"
        },
        {
            "request": {
                "method": "PUT",
                "url": "MedicationDispense/smart-MedicationDispense-431"
            },
            "resource": {
                "authorizingPrescription": {
                    "reference": "MedicationRequest/smart-MedicationRequest-68"
                },
                "daysSupply": {
                    "code": "d",
                    "system": "http://unitsofmeasure.org",
                    "unit": "days",
                    "value": 30
                },
                "id": "smart-MedicationDispense-431",
                "medicationCodeableConcept": {
                    "coding": [
                        {
                            "code": "617318",
                            "display": "atorvastatin 20 MG Oral Tablet [Lipitor]",
                            "system": "http://www.nlm.nih.gov/research/umls/rxnorm"
                        }
                    ],
                    "text": "atorvastatin 20 MG Oral Tablet [Lipitor]"
                },
                "quantity": {
                    "code": "{tablets}",
                    "system": "http://unitsofmeasure.org",
                    "unit": "tablets",
                    "value": 30
                },
                "resourceType": "MedicationDispense",
                "status": "completed",
                "subject": {
                    "reference": "Patient/smart-935270"
                },
                "text": {
                    "div": "<div xmlns=\"http://www.w3.org/1999/xhtml\">Dispensed 30 tablets = 30 day supply of atorvastatin 20 MG Oral Tablet [Lipitor]</div>",
                    "status": "generated"
                },
                "whenHandedOver": "2007-11-17",
                "meta": {
                    "tag": [
                        {
                            "system": "https://smarthealthit.org/tags",
                            "code": "smart-7-2017"
                        }
                    ]
                }
            },
            "fullUrl": "/MedicationDispense/smart-MedicationDispense-431"
        },
        {
            "request": {
                "method": "PUT",
                "url": "MedicationDispense/smart-MedicationDispense-439"
            },
            "resource": {
                "authorizingPrescription": {
                    "reference": "MedicationRequest/smart-MedicationRequest-68"
                },
                "daysSupply": {
                    "code": "d",
                    "system": "http://unitsofmeasure.org",
                    "unit": "days",
                    "value": 30
                },
                "id": "smart-MedicationDispense-439",
                "medicationCodeableConcept": {
                    "coding": [
                        {
                            "code": "617318",
                            "display": "atorvastatin 20 MG Oral Tablet [Lipitor]",
                            "system": "http://www.nlm.nih.gov/research/umls/rxnorm"
                        }
                    ],
                    "text": "atorvastatin 20 MG Oral Tablet [Lipitor]"
                },
                "quantity": {
                    "code": "{tablets}",
                    "system": "http://unitsofmeasure.org",
                    "unit": "tablets",
                    "value": 30
                },
                "resourceType": "MedicationDispense",
                "status": "completed",
                "subject": {
                    "reference": "Patient/smart-935270"
                },
                "text": {
                    "div": "<div xmlns=\"http://www.w3.org/1999/xhtml\">Dispensed 30 tablets = 30 day supply of atorvastatin 20 MG Oral Tablet [Lipitor]</div>",
                    "status": "generated"
                },
                "whenHandedOver": "2008-05-21",
                "meta": {
                    "tag": [
                        {
                            "system": "https://smarthealthit.org/tags",
                            "code": "smart-7-2017"
                        }
                    ]
                }
            },
            "fullUrl": "/MedicationDispense/smart-MedicationDispense-439"
        },
        {
            "request": {
                "method": "PUT",
                "url": "MedicationDispense/smart-MedicationDispense-457"
            },
            "resource": {
                "authorizingPrescription": {
                    "reference": "MedicationRequest/smart-MedicationRequest-68"
                },
                "daysSupply": {
                    "code": "d",
                    "system": "http://unitsofmeasure.org",
                    "unit": "days",
                    "value": 30
                },
                "id": "smart-MedicationDispense-457",
                "medicationCodeableConcept": {
                    "coding": [
                        {
                            "code": "617318",
                            "display": "atorvastatin 20 MG Oral Tablet [Lipitor]",
                            "system": "http://www.nlm.nih.gov/research/umls/rxnorm"
                        }
                    ],
                    "text": "atorvastatin 20 MG Oral Tablet [Lipitor]"
                },
                "quantity": {
                    "code": "{tablets}",
                    "system": "http://unitsofmeasure.org",
                    "unit": "tablets",
                    "value": 30
                },
                "resourceType": "MedicationDispense",
                "status": "completed",
                "subject": {
                    "reference": "Patient/smart-935270"
                },
                "text": {
                    "div": "<div xmlns=\"http://www.w3.org/1999/xhtml\">Dispensed 30 tablets = 30 day supply of atorvastatin 20 MG Oral Tablet [Lipitor]</div>",
                    "status": "generated"
                },
                "whenHandedOver": "2009-03-09",
                "meta": {
                    "tag": [
                        {
                            "system": "https://smarthealthit.org/tags",
                            "code": "smart-7-2017"
                        }
                    ]
                }
            },
            "fullUrl": "/MedicationDispense/smart-MedicationDispense-457"
        },
        {
            "request": {
                "method": "PUT",
                "url": "MedicationDispense/smart-MedicationDispense-461"
            },
            "resource": {
                "authorizingPrescription": {
                    "reference": "MedicationRequest/smart-MedicationRequest-68"
                },
                "daysSupply": {
                    "code": "d",
                    "system": "http://unitsofmeasure.org",
                    "unit": "days",
                    "value": 30
                },
                "id": "smart-MedicationDispense-461",
                "medicationCodeableConcept": {
                    "coding": [
                        {
                            "code": "617318",
                            "display": "atorvastatin 20 MG Oral Tablet [Lipitor]",
                            "system": "http://www.nlm.nih.gov/research/umls/rxnorm"
                        }
                    ],
                    "text": "atorvastatin 20 MG Oral Tablet [Lipitor]"
                },
                "quantity": {
                    "code": "{tablets}",
                    "system": "http://unitsofmeasure.org",
                    "unit": "tablets",
                    "value": 30
                },
                "resourceType": "MedicationDispense",
                "status": "completed",
                "subject": {
                    "reference": "Patient/smart-935270"
                },
                "text": {
                    "div": "<div xmlns=\"http://www.w3.org/1999/xhtml\">Dispensed 30 tablets = 30 day supply of atorvastatin 20 MG Oral Tablet [Lipitor]</div>",
                    "status": "generated"
                },
                "whenHandedOver": "2009-05-07",
                "meta": {
                    "tag": [
                        {
                            "system": "https://smarthealthit.org/tags",
                            "code": "smart-7-2017"
                        }
                    ]
                }
            },
            "fullUrl": "/MedicationDispense/smart-MedicationDispense-461"
        },
        {
            "request": {
                "method": "PUT",
                "url": "MedicationRequest/smart-MedicationRequest-69"
            },
            "resource": {
                "dispenseRequest": {
                    "expectedSupplyDuration": {
                        "code": "d",
                        "system": "http://unitsofmeasure.org",
                        "unit": "days",
                        "value": 30
                    },
                    "numberOfRepeatsAllowed": 1,
                    "quantity": {
                        "code": "{tablet}",
                        "system": "http://unitsofmeasure.org",
                        "unit": "{tablet}",
                        "value": 30
                    }
                },
                "dosageInstruction": [
                    {
                        "doseQuantity": {
                            "code": "{tablet}",
                            "system": "http://unitsofmeasure.org",
                            "unit": "{tablet}",
                            "value": 1
                        },
                        "text": "1 daily",
                        "timing": {
                            "repeat": {
                                "boundsPeriod": {
                                    "start": "2007-10-19"
                                },
                                "frequency": 1,
                                "period": 1,
                                "periodUnit": "d"
                            }
                        }
                    }
                ],
                "id": "smart-MedicationRequest-69",
                "intent": "order",
                "medicationCodeableConcept": {
                    "coding": [
                        {
                            "code": "866427",
                            "display": "Metoprolol 25 MG Extended Release Tablet",
                            "system": "http://www.nlm.nih.gov/research/umls/rxnorm"
                        }
                    ],
                    "text": "Metoprolol 25 MG Extended Release Tablet"
                },
                "resourceType": "MedicationRequest",
                "status": "active",
                "subject": {
                    "reference": "Patient/smart-935270"
                },
                "text": {
                    "div": "<div xmlns=\"http://www.w3.org/1999/xhtml\">Metoprolol 25 MG Extended Release Tablet (rxnorm: 866427)</div>",
                    "status": "generated"
                },
                "meta": {
                    "tag": [
                        {
                            "system": "https://smarthealthit.org/tags",
                            "code": "smart-7-2017"
                        }
                    ]
                }
            },
            "fullUrl": "/MedicationRequest/smart-MedicationRequest-69"
        },
        {
            "request": {
                "method": "PUT",
                "url": "MedicationDispense/smart-MedicationDispense-499"
            },
            "resource": {
                "authorizingPrescription": {
                    "reference": "MedicationRequest/smart-MedicationRequest-69"
                },
                "daysSupply": {
                    "code": "d",
                    "system": "http://unitsofmeasure.org",
                    "unit": "days",
                    "value": 30
                },
                "id": "smart-MedicationDispense-499",
                "medicationCodeableConcept": {
                    "coding": [
                        {
                            "code": "866427",
                            "display": "Metoprolol 25 MG Extended Release Tablet",
                            "system": "http://www.nlm.nih.gov/research/umls/rxnorm"
                        }
                    ],
                    "text": "Metoprolol 25 MG Extended Release Tablet"
                },
                "quantity": {
                    "code": "{tablets}",
                    "system": "http://unitsofmeasure.org",
                    "unit": "tablets",
                    "value": 15
                },
                "resourceType": "MedicationDispense",
                "status": "completed",
                "subject": {
                    "reference": "Patient/smart-935270"
                },
                "text": {
                    "div": "<div xmlns=\"http://www.w3.org/1999/xhtml\">Dispensed 15 tablets = 30 day supply of Metoprolol 25 MG Extended Release Tablet</div>",
                    "status": "generated"
                },
                "whenHandedOver": "2009-05-07",
                "meta": {
                    "tag": [
                        {
                            "system": "https://smarthealthit.org/tags",
                            "code": "smart-7-2017"
                        }
                    ]
                }
            },
            "fullUrl": "/MedicationDispense/smart-MedicationDispense-499"
        },
        {
            "request": {
                "method": "PUT",
                "url": "MedicationDispense/smart-MedicationDispense-489"
            },
            "resource": {
                "authorizingPrescription": {
                    "reference": "MedicationRequest/smart-MedicationRequest-69"
                },
                "daysSupply": {
                    "code": "d",
                    "system": "http://unitsofmeasure.org",
                    "unit": "days",
                    "value": 30
                },
                "id": "smart-MedicationDispense-489",
                "medicationCodeableConcept": {
                    "coding": [
                        {
                            "code": "866427",
                            "display": "Metoprolol 25 MG Extended Release Tablet",
                            "system": "http://www.nlm.nih.gov/research/umls/rxnorm"
                        }
                    ],
                    "text": "Metoprolol 25 MG Extended Release Tablet"
                },
                "quantity": {
                    "code": "{tablets}",
                    "system": "http://unitsofmeasure.org",
                    "unit": "tablets",
                    "value": 15
                },
                "resourceType": "MedicationDispense",
                "status": "completed",
                "subject": {
                    "reference": "Patient/smart-935270"
                },
                "text": {
                    "div": "<div xmlns=\"http://www.w3.org/1999/xhtml\">Dispensed 15 tablets = 30 day supply of Metoprolol 25 MG Extended Release Tablet</div>",
                    "status": "generated"
                },
                "whenHandedOver": "2008-11-05",
                "meta": {
                    "tag": [
                        {
                            "system": "https://smarthealthit.org/tags",
                            "code": "smart-7-2017"
                        }
                    ]
                }
            },
            "fullUrl": "/MedicationDispense/smart-MedicationDispense-489"
        },
        {
            "request": {
                "method": "PUT",
                "url": "MedicationDispense/smart-MedicationDispense-485"
            },
            "resource": {
                "authorizingPrescription": {
                    "reference": "MedicationRequest/smart-MedicationRequest-69"
                },
                "daysSupply": {
                    "code": "d",
                    "system": "http://unitsofmeasure.org",
                    "unit": "days",
                    "value": 30
                },
                "id": "smart-MedicationDispense-485",
                "medicationCodeableConcept": {
                    "coding": [
                        {
                            "code": "866427",
                            "display": "Metoprolol 25 MG Extended Release Tablet",
                            "system": "http://www.nlm.nih.gov/research/umls/rxnorm"
                        }
                    ],
                    "text": "Metoprolol 25 MG Extended Release Tablet"
                },
                "quantity": {
                    "code": "{tablets}",
                    "system": "http://unitsofmeasure.org",
                    "unit": "tablets",
                    "value": 15
                },
                "resourceType": "MedicationDispense",
                "status": "completed",
                "subject": {
                    "reference": "Patient/smart-935270"
                },
                "text": {
                    "div": "<div xmlns=\"http://www.w3.org/1999/xhtml\">Dispensed 15 tablets = 30 day supply of Metoprolol 25 MG Extended Release Tablet</div>",
                    "status": "generated"
                },
                "whenHandedOver": "2008-09-09",
                "meta": {
                    "tag": [
                        {
                            "system": "https://smarthealthit.org/tags",
                            "code": "smart-7-2017"
                        }
                    ]
                }
            },
            "fullUrl": "/MedicationDispense/smart-MedicationDispense-485"
        },
        {
            "request": {
                "method": "PUT",
                "url": "MedicationDispense/smart-MedicationDispense-491"
            },
            "resource": {
                "authorizingPrescription": {
                    "reference": "MedicationRequest/smart-MedicationRequest-69"
                },
                "daysSupply": {
                    "code": "d",
                    "system": "http://unitsofmeasure.org",
                    "unit": "days",
                    "value": 30
                },
                "id": "smart-MedicationDispense-491",
                "medicationCodeableConcept": {
                    "coding": [
                        {
                            "code": "866427",
                            "display": "Metoprolol 25 MG Extended Release Tablet",
                            "system": "http://www.nlm.nih.gov/research/umls/rxnorm"
                        }
                    ],
                    "text": "Metoprolol 25 MG Extended Release Tablet"
                },
                "quantity": {
                    "code": "{tablets}",
                    "system": "http://unitsofmeasure.org",
                    "unit": "tablets",
                    "value": 15
                },
                "resourceType": "MedicationDispense",
                "status": "completed",
                "subject": {
                    "reference": "Patient/smart-935270"
                },
                "text": {
                    "div": "<div xmlns=\"http://www.w3.org/1999/xhtml\">Dispensed 15 tablets = 30 day supply of Metoprolol 25 MG Extended Release Tablet</div>",
                    "status": "generated"
                },
                "whenHandedOver": "2008-12-06",
                "meta": {
                    "tag": [
                        {
                            "system": "https://smarthealthit.org/tags",
                            "code": "smart-7-2017"
                        }
                    ]
                }
            },
            "fullUrl": "/MedicationDispense/smart-MedicationDispense-491"
        },
        {
            "request": {
                "method": "PUT",
                "url": "MedicationDispense/smart-MedicationDispense-476"
            },
            "resource": {
                "authorizingPrescription": {
                    "reference": "MedicationRequest/smart-MedicationRequest-69"
                },
                "daysSupply": {
                    "code": "d",
                    "system": "http://unitsofmeasure.org",
                    "unit": "days",
                    "value": 30
                },
                "id": "smart-MedicationDispense-476",
                "medicationCodeableConcept": {
                    "coding": [
                        {
                            "code": "866427",
                            "display": "Metoprolol 25 MG Extended Release Tablet",
                            "system": "http://www.nlm.nih.gov/research/umls/rxnorm"
                        }
                    ],
                    "text": "Metoprolol 25 MG Extended Release Tablet"
                },
                "quantity": {
                    "code": "{tablets}",
                    "system": "http://unitsofmeasure.org",
                    "unit": "tablets",
                    "value": 30
                },
                "resourceType": "MedicationDispense",
                "status": "completed",
                "subject": {
                    "reference": "Patient/smart-935270"
                },
                "text": {
                    "div": "<div xmlns=\"http://www.w3.org/1999/xhtml\">Dispensed 30 tablets = 30 day supply of Metoprolol 25 MG Extended Release Tablet</div>",
                    "status": "generated"
                },
                "whenHandedOver": "2007-10-19",
                "meta": {
                    "tag": [
                        {
                            "system": "https://smarthealthit.org/tags",
                            "code": "smart-7-2017"
                        }
                    ]
                }
            },
            "fullUrl": "/MedicationDispense/smart-MedicationDispense-476"
        },
        {
            "request": {
                "method": "PUT",
                "url": "MedicationDispense/smart-MedicationDispense-480"
            },
            "resource": {
                "authorizingPrescription": {
                    "reference": "MedicationRequest/smart-MedicationRequest-69"
                },
                "daysSupply": {
                    "code": "d",
                    "system": "http://unitsofmeasure.org",
                    "unit": "days",
                    "value": 30
                },
                "id": "smart-MedicationDispense-480",
                "medicationCodeableConcept": {
                    "coding": [
                        {
                            "code": "866427",
                            "display": "Metoprolol 25 MG Extended Release Tablet",
                            "system": "http://www.nlm.nih.gov/research/umls/rxnorm"
                        }
                    ],
                    "text": "Metoprolol 25 MG Extended Release Tablet"
                },
                "quantity": {
                    "code": "{tablets}",
                    "system": "http://unitsofmeasure.org",
                    "unit": "tablets",
                    "value": 30
                },
                "resourceType": "MedicationDispense",
                "status": "completed",
                "subject": {
                    "reference": "Patient/smart-935270"
                },
                "text": {
                    "div": "<div xmlns=\"http://www.w3.org/1999/xhtml\">Dispensed 30 tablets = 30 day supply of Metoprolol 25 MG Extended Release Tablet</div>",
                    "status": "generated"
                },
                "whenHandedOver": "2008-05-21",
                "meta": {
                    "tag": [
                        {
                            "system": "https://smarthealthit.org/tags",
                            "code": "smart-7-2017"
                        }
                    ]
                }
            },
            "fullUrl": "/MedicationDispense/smart-MedicationDispense-480"
        },
        {
            "request": {
                "method": "PUT",
                "url": "MedicationDispense/smart-MedicationDispense-497"
            },
            "resource": {
                "authorizingPrescription": {
                    "reference": "MedicationRequest/smart-MedicationRequest-69"
                },
                "daysSupply": {
                    "code": "d",
                    "system": "http://unitsofmeasure.org",
                    "unit": "days",
                    "value": 30
                },
                "id": "smart-MedicationDispense-497",
                "medicationCodeableConcept": {
                    "coding": [
                        {
                            "code": "866427",
                            "display": "Metoprolol 25 MG Extended Release Tablet",
                            "system": "http://www.nlm.nih.gov/research/umls/rxnorm"
                        }
                    ],
                    "text": "Metoprolol 25 MG Extended Release Tablet"
                },
                "quantity": {
                    "code": "{tablets}",
                    "system": "http://unitsofmeasure.org",
                    "unit": "tablets",
                    "value": 15
                },
                "resourceType": "MedicationDispense",
                "status": "completed",
                "subject": {
                    "reference": "Patient/smart-935270"
                },
                "text": {
                    "div": "<div xmlns=\"http://www.w3.org/1999/xhtml\">Dispensed 15 tablets = 30 day supply of Metoprolol 25 MG Extended Release Tablet</div>",
                    "status": "generated"
                },
                "whenHandedOver": "2009-04-07",
                "meta": {
                    "tag": [
                        {
                            "system": "https://smarthealthit.org/tags",
                            "code": "smart-7-2017"
                        }
                    ]
                }
            },
            "fullUrl": "/MedicationDispense/smart-MedicationDispense-497"
        },
        {
            "request": {
                "method": "PUT",
                "url": "MedicationDispense/smart-MedicationDispense-495"
            },
            "resource": {
                "authorizingPrescription": {
                    "reference": "MedicationRequest/smart-MedicationRequest-69"
                },
                "daysSupply": {
                    "code": "d",
                    "system": "http://unitsofmeasure.org",
                    "unit": "days",
                    "value": 30
                },
                "id": "smart-MedicationDispense-495",
                "medicationCodeableConcept": {
                    "coding": [
                        {
                            "code": "866427",
                            "display": "Metoprolol 25 MG Extended Release Tablet",
                            "system": "http://www.nlm.nih.gov/research/umls/rxnorm"
                        }
                    ],
                    "text": "Metoprolol 25 MG Extended Release Tablet"
                },
                "quantity": {
                    "code": "{tablets}",
                    "system": "http://unitsofmeasure.org",
                    "unit": "tablets",
                    "value": 15
                },
                "resourceType": "MedicationDispense",
                "status": "completed",
                "subject": {
                    "reference": "Patient/smart-935270"
                },
                "text": {
                    "div": "<div xmlns=\"http://www.w3.org/1999/xhtml\">Dispensed 15 tablets = 30 day supply of Metoprolol 25 MG Extended Release Tablet</div>",
                    "status": "generated"
                },
                "whenHandedOver": "2009-03-09",
                "meta": {
                    "tag": [
                        {
                            "system": "https://smarthealthit.org/tags",
                            "code": "smart-7-2017"
                        }
                    ]
                }
            },
            "fullUrl": "/MedicationDispense/smart-MedicationDispense-495"
        },
        {
            "request": {
                "method": "PUT",
                "url": "MedicationDispense/smart-MedicationDispense-478"
            },
            "resource": {
                "authorizingPrescription": {
                    "reference": "MedicationRequest/smart-MedicationRequest-69"
                },
                "daysSupply": {
                    "code": "d",
                    "system": "http://unitsofmeasure.org",
                    "unit": "days",
                    "value": 30
                },
                "id": "smart-MedicationDispense-478",
                "medicationCodeableConcept": {
                    "coding": [
                        {
                            "code": "866427",
                            "display": "Metoprolol 25 MG Extended Release Tablet",
                            "system": "http://www.nlm.nih.gov/research/umls/rxnorm"
                        }
                    ],
                    "text": "Metoprolol 25 MG Extended Release Tablet"
                },
                "quantity": {
                    "code": "{tablets}",
                    "system": "http://unitsofmeasure.org",
                    "unit": "tablets",
                    "value": 30
                },
                "resourceType": "MedicationDispense",
                "status": "completed",
                "subject": {
                    "reference": "Patient/smart-935270"
                },
                "text": {
                    "div": "<div xmlns=\"http://www.w3.org/1999/xhtml\">Dispensed 30 tablets = 30 day supply of Metoprolol 25 MG Extended Release Tablet</div>",
                    "status": "generated"
                },
                "whenHandedOver": "2008-02-20",
                "meta": {
                    "tag": [
                        {
                            "system": "https://smarthealthit.org/tags",
                            "code": "smart-7-2017"
                        }
                    ]
                }
            },
            "fullUrl": "/MedicationDispense/smart-MedicationDispense-478"
        },
        {
            "request": {
                "method": "PUT",
                "url": "MedicationDispense/smart-MedicationDispense-479"
            },
            "resource": {
                "authorizingPrescription": {
                    "reference": "MedicationRequest/smart-MedicationRequest-69"
                },
                "daysSupply": {
                    "code": "d",
                    "system": "http://unitsofmeasure.org",
                    "unit": "days",
                    "value": 30
                },
                "id": "smart-MedicationDispense-479",
                "medicationCodeableConcept": {
                    "coding": [
                        {
                            "code": "866427",
                            "display": "Metoprolol 25 MG Extended Release Tablet",
                            "system": "http://www.nlm.nih.gov/research/umls/rxnorm"
                        }
                    ],
                    "text": "Metoprolol 25 MG Extended Release Tablet"
                },
                "quantity": {
                    "code": "{tablets}",
                    "system": "http://unitsofmeasure.org",
                    "unit": "tablets",
                    "value": 30
                },
                "resourceType": "MedicationDispense",
                "status": "completed",
                "subject": {
                    "reference": "Patient/smart-935270"
                },
                "text": {
                    "div": "<div xmlns=\"http://www.w3.org/1999/xhtml\">Dispensed 30 tablets = 30 day supply of Metoprolol 25 MG Extended Release Tablet</div>",
                    "status": "generated"
                },
                "whenHandedOver": "2008-03-21",
                "meta": {
                    "tag": [
                        {
                            "system": "https://smarthealthit.org/tags",
                            "code": "smart-7-2017"
                        }
                    ]
                }
            },
            "fullUrl": "/MedicationDispense/smart-MedicationDispense-479"
        },
        {
            "request": {
                "method": "PUT",
                "url": "MedicationDispense/smart-MedicationDispense-493"
            },
            "resource": {
                "authorizingPrescription": {
                    "reference": "MedicationRequest/smart-MedicationRequest-69"
                },
                "daysSupply": {
                    "code": "d",
                    "system": "http://unitsofmeasure.org",
                    "unit": "days",
                    "value": 30
                },
                "id": "smart-MedicationDispense-493",
                "medicationCodeableConcept": {
                    "coding": [
                        {
                            "code": "866427",
                            "display": "Metoprolol 25 MG Extended Release Tablet",
                            "system": "http://www.nlm.nih.gov/research/umls/rxnorm"
                        }
                    ],
                    "text": "Metoprolol 25 MG Extended Release Tablet"
                },
                "quantity": {
                    "code": "{tablets}",
                    "system": "http://unitsofmeasure.org",
                    "unit": "tablets",
                    "value": 15
                },
                "resourceType": "MedicationDispense",
                "status": "completed",
                "subject": {
                    "reference": "Patient/smart-935270"
                },
                "text": {
                    "div": "<div xmlns=\"http://www.w3.org/1999/xhtml\">Dispensed 15 tablets = 30 day supply of Metoprolol 25 MG Extended Release Tablet</div>",
                    "status": "generated"
                },
                "whenHandedOver": "2009-02-11",
                "meta": {
                    "tag": [
                        {
                            "system": "https://smarthealthit.org/tags",
                            "code": "smart-7-2017"
                        }
                    ]
                }
            },
            "fullUrl": "/MedicationDispense/smart-MedicationDispense-493"
        },
        {
            "request": {
                "method": "PUT",
                "url": "MedicationDispense/smart-MedicationDispense-481"
            },
            "resource": {
                "authorizingPrescription": {
                    "reference": "MedicationRequest/smart-MedicationRequest-69"
                },
                "daysSupply": {
                    "code": "d",
                    "system": "http://unitsofmeasure.org",
                    "unit": "days",
                    "value": 30
                },
                "id": "smart-MedicationDispense-481",
                "medicationCodeableConcept": {
                    "coding": [
                        {
                            "code": "866427",
                            "display": "Metoprolol 25 MG Extended Release Tablet",
                            "system": "http://www.nlm.nih.gov/research/umls/rxnorm"
                        }
                    ],
                    "text": "Metoprolol 25 MG Extended Release Tablet"
                },
                "quantity": {
                    "code": "{tablets}",
                    "system": "http://unitsofmeasure.org",
                    "unit": "tablets",
                    "value": 30
                },
                "resourceType": "MedicationDispense",
                "status": "completed",
                "subject": {
                    "reference": "Patient/smart-935270"
                },
                "text": {
                    "div": "<div xmlns=\"http://www.w3.org/1999/xhtml\">Dispensed 30 tablets = 30 day supply of Metoprolol 25 MG Extended Release Tablet</div>",
                    "status": "generated"
                },
                "whenHandedOver": "2008-07-13",
                "meta": {
                    "tag": [
                        {
                            "system": "https://smarthealthit.org/tags",
                            "code": "smart-7-2017"
                        }
                    ]
                }
            },
            "fullUrl": "/MedicationDispense/smart-MedicationDispense-481"
        },
        {
            "request": {
                "method": "PUT",
                "url": "MedicationDispense/smart-MedicationDispense-477"
            },
            "resource": {
                "authorizingPrescription": {
                    "reference": "MedicationRequest/smart-MedicationRequest-69"
                },
                "daysSupply": {
                    "code": "d",
                    "system": "http://unitsofmeasure.org",
                    "unit": "days",
                    "value": 30
                },
                "id": "smart-MedicationDispense-477",
                "medicationCodeableConcept": {
                    "coding": [
                        {
                            "code": "866427",
                            "display": "Metoprolol 25 MG Extended Release Tablet",
                            "system": "http://www.nlm.nih.gov/research/umls/rxnorm"
                        }
                    ],
                    "text": "Metoprolol 25 MG Extended Release Tablet"
                },
                "quantity": {
                    "code": "{tablets}",
                    "system": "http://unitsofmeasure.org",
                    "unit": "tablets",
                    "value": 30
                },
                "resourceType": "MedicationDispense",
                "status": "completed",
                "subject": {
                    "reference": "Patient/smart-935270"
                },
                "text": {
                    "div": "<div xmlns=\"http://www.w3.org/1999/xhtml\">Dispensed 30 tablets = 30 day supply of Metoprolol 25 MG Extended Release Tablet</div>",
                    "status": "generated"
                },
                "whenHandedOver": "2007-12-18",
                "meta": {
                    "tag": [
                        {
                            "system": "https://smarthealthit.org/tags",
                            "code": "smart-7-2017"
                        }
                    ]
                }
            },
            "fullUrl": "/MedicationDispense/smart-MedicationDispense-477"
        },
        {
            "request": {
                "method": "PUT",
                "url": "MedicationDispense/smart-MedicationDispense-501"
            },
            "resource": {
                "authorizingPrescription": {
                    "reference": "MedicationRequest/smart-MedicationRequest-69"
                },
                "daysSupply": {
                    "code": "d",
                    "system": "http://unitsofmeasure.org",
                    "unit": "days",
                    "value": 30
                },
                "id": "smart-MedicationDispense-501",
                "medicationCodeableConcept": {
                    "coding": [
                        {
                            "code": "866427",
                            "display": "Metoprolol 25 MG Extended Release Tablet",
                            "system": "http://www.nlm.nih.gov/research/umls/rxnorm"
                        }
                    ],
                    "text": "Metoprolol 25 MG Extended Release Tablet"
                },
                "quantity": {
                    "code": "{tablets}",
                    "system": "http://unitsofmeasure.org",
                    "unit": "tablets",
                    "value": 15
                },
                "resourceType": "MedicationDispense",
                "status": "completed",
                "subject": {
                    "reference": "Patient/smart-935270"
                },
                "text": {
                    "div": "<div xmlns=\"http://www.w3.org/1999/xhtml\">Dispensed 15 tablets = 30 day supply of Metoprolol 25 MG Extended Release Tablet</div>",
                    "status": "generated"
                },
                "whenHandedOver": "2009-06-06",
                "meta": {
                    "tag": [
                        {
                            "system": "https://smarthealthit.org/tags",
                            "code": "smart-7-2017"
                        }
                    ]
                }
            },
            "fullUrl": "/MedicationDispense/smart-MedicationDispense-501"
        },
        {
            "request": {
                "method": "PUT",
                "url": "MedicationDispense/smart-MedicationDispense-487"
            },
            "resource": {
                "authorizingPrescription": {
                    "reference": "MedicationRequest/smart-MedicationRequest-69"
                },
                "daysSupply": {
                    "code": "d",
                    "system": "http://unitsofmeasure.org",
                    "unit": "days",
                    "value": 30
                },
                "id": "smart-MedicationDispense-487",
                "medicationCodeableConcept": {
                    "coding": [
                        {
                            "code": "866427",
                            "display": "Metoprolol 25 MG Extended Release Tablet",
                            "system": "http://www.nlm.nih.gov/research/umls/rxnorm"
                        }
                    ],
                    "text": "Metoprolol 25 MG Extended Release Tablet"
                },
                "quantity": {
                    "code": "{tablets}",
                    "system": "http://unitsofmeasure.org",
                    "unit": "tablets",
                    "value": 15
                },
                "resourceType": "MedicationDispense",
                "status": "completed",
                "subject": {
                    "reference": "Patient/smart-935270"
                },
                "text": {
                    "div": "<div xmlns=\"http://www.w3.org/1999/xhtml\">Dispensed 15 tablets = 30 day supply of Metoprolol 25 MG Extended Release Tablet</div>",
                    "status": "generated"
                },
                "whenHandedOver": "2008-10-07",
                "meta": {
                    "tag": [
                        {
                            "system": "https://smarthealthit.org/tags",
                            "code": "smart-7-2017"
                        }
                    ]
                }
            },
            "fullUrl": "/MedicationDispense/smart-MedicationDispense-487"
        },
        {
            "request": {
                "method": "PUT",
                "url": "MedicationDispense/smart-MedicationDispense-483"
            },
            "resource": {
                "authorizingPrescription": {
                    "reference": "MedicationRequest/smart-MedicationRequest-69"
                },
                "daysSupply": {
                    "code": "d",
                    "system": "http://unitsofmeasure.org",
                    "unit": "days",
                    "value": 30
                },
                "id": "smart-MedicationDispense-483",
                "medicationCodeableConcept": {
                    "coding": [
                        {
                            "code": "866427",
                            "display": "Metoprolol 25 MG Extended Release Tablet",
                            "system": "http://www.nlm.nih.gov/research/umls/rxnorm"
                        }
                    ],
                    "text": "Metoprolol 25 MG Extended Release Tablet"
                },
                "quantity": {
                    "code": "{tablets}",
                    "system": "http://unitsofmeasure.org",
                    "unit": "tablets",
                    "value": 15
                },
                "resourceType": "MedicationDispense",
                "status": "completed",
                "subject": {
                    "reference": "Patient/smart-935270"
                },
                "text": {
                    "div": "<div xmlns=\"http://www.w3.org/1999/xhtml\">Dispensed 15 tablets = 30 day supply of Metoprolol 25 MG Extended Release Tablet</div>",
                    "status": "generated"
                },
                "whenHandedOver": "2008-08-13",
                "meta": {
                    "tag": [
                        {
                            "system": "https://smarthealthit.org/tags",
                            "code": "smart-7-2017"
                        }
                    ]
                }
            },
            "fullUrl": "/MedicationDispense/smart-MedicationDispense-483"
        },
        {
            "request": {
                "method": "PUT",
                "url": "MedicationRequest/smart-MedicationRequest-70"
            },
            "resource": {
                "dispenseRequest": {
                    "expectedSupplyDuration": {
                        "code": "d",
                        "system": "http://unitsofmeasure.org",
                        "unit": "days",
                        "value": 10
                    },
                    "numberOfRepeatsAllowed": 1,
                    "quantity": {
                        "code": "{tablet}",
                        "system": "http://unitsofmeasure.org",
                        "unit": "{tablet}",
                        "value": 20
                    }
                },
                "dosageInstruction": [
                    {
                        "doseQuantity": {
                            "code": "{tablet}",
                            "system": "http://unitsofmeasure.org",
                            "unit": "{tablet}",
                            "value": 1
                        },
                        "text": "1 bid",
                        "timing": {
                            "repeat": {
                                "boundsPeriod": {
                                    "start": "2008-09-13"
                                },
                                "frequency": 2,
                                "period": 1,
                                "periodUnit": "d"
                            }
                        }
                    }
                ],
                "id": "smart-MedicationRequest-70",
                "intent": "order",
                "medicationCodeableConcept": {
                    "coding": [
                        {
                            "code": "562508",
                            "display": "Amoxicillin 875 MG / Clavulanate 125 MG Oral Tablet",
                            "system": "http://www.nlm.nih.gov/research/umls/rxnorm"
                        }
                    ],
                    "text": "Amoxicillin 875 MG / Clavulanate 125 MG Oral Tablet"
                },
                "resourceType": "MedicationRequest",
                "status": "active",
                "subject": {
                    "reference": "Patient/smart-935270"
                },
                "text": {
                    "div": "<div xmlns=\"http://www.w3.org/1999/xhtml\">Amoxicillin 875 MG / Clavulanate 125 MG Oral Tablet (rxnorm: 562508)</div>",
                    "status": "generated"
                },
                "meta": {
                    "tag": [
                        {
                            "system": "https://smarthealthit.org/tags",
                            "code": "smart-7-2017"
                        }
                    ]
                }
            },
            "fullUrl": "/MedicationRequest/smart-MedicationRequest-70"
        },
        {
            "request": {
                "method": "PUT",
                "url": "MedicationDispense/smart-MedicationDispense-387"
            },
            "resource": {
                "authorizingPrescription": {
                    "reference": "MedicationRequest/smart-MedicationRequest-70"
                },
                "daysSupply": {
                    "code": "d",
                    "system": "http://unitsofmeasure.org",
                    "unit": "days",
                    "value": 10
                },
                "id": "smart-MedicationDispense-387",
                "medicationCodeableConcept": {
                    "coding": [
                        {
                            "code": "562508",
                            "display": "Amoxicillin 875 MG / Clavulanate 125 MG Oral Tablet",
                            "system": "http://www.nlm.nih.gov/research/umls/rxnorm"
                        }
                    ],
                    "text": "Amoxicillin 875 MG / Clavulanate 125 MG Oral Tablet"
                },
                "quantity": {
                    "code": "{tablets}",
                    "system": "http://unitsofmeasure.org",
                    "unit": "tablets",
                    "value": 30
                },
                "resourceType": "MedicationDispense",
                "status": "completed",
                "subject": {
                    "reference": "Patient/smart-935270"
                },
                "text": {
                    "div": "<div xmlns=\"http://www.w3.org/1999/xhtml\">Dispensed 30 tablets = 10 day supply of Amoxicillin 875 MG / Clavulanate 125 MG Oral Tablet</div>",
                    "status": "generated"
                },
                "whenHandedOver": "2008-09-13",
                "meta": {
                    "tag": [
                        {
                            "system": "https://smarthealthit.org/tags",
                            "code": "smart-7-2017"
                        }
                    ]
                }
            },
            "fullUrl": "/MedicationDispense/smart-MedicationDispense-387"
        },
        {
            "request": {
                "method": "PUT",
                "url": "MedicationRequest/smart-MedicationRequest-71"
            },
            "resource": {
                "dispenseRequest": {
                    "expectedSupplyDuration": {
                        "code": "d",
                        "system": "http://unitsofmeasure.org",
                        "unit": "days",
                        "value": 30
                    },
                    "numberOfRepeatsAllowed": 1,
                    "quantity": {
                        "code": "{tablet}",
                        "system": "http://unitsofmeasure.org",
                        "unit": "{tablet}",
                        "value": 30
                    }
                },
                "dosageInstruction": [
                    {
                        "doseQuantity": {
                            "code": "{tablet}",
                            "system": "http://unitsofmeasure.org",
                            "unit": "{tablet}",
                            "value": 1
                        },
                        "text": "1 daily",
                        "timing": {
                            "repeat": {
                                "boundsPeriod": {
                                    "start": "2009-01-04"
                                },
                                "frequency": 1,
                                "period": 1,
                                "periodUnit": "d"
                            }
                        }
                    }
                ],
                "id": "smart-MedicationRequest-71",
                "intent": "order",
                "medicationCodeableConcept": {
                    "coding": [
                        {
                            "code": "866429",
                            "display": "24 HR Metoprolol 25 MG Extended Release Tablet [Toprol-XL]",
                            "system": "http://www.nlm.nih.gov/research/umls/rxnorm"
                        }
                    ],
                    "text": "24 HR Metoprolol 25 MG Extended Release Tablet [Toprol-XL]"
                },
                "resourceType": "MedicationRequest",
                "status": "active",
                "subject": {
                    "reference": "Patient/smart-935270"
                },
                "text": {
                    "div": "<div xmlns=\"http://www.w3.org/1999/xhtml\">24 HR Metoprolol 25 MG Extended Release Tablet [Toprol-XL] (rxnorm: 866429)</div>",
                    "status": "generated"
                },
                "meta": {
                    "tag": [
                        {
                            "system": "https://smarthealthit.org/tags",
                            "code": "smart-7-2017"
                        }
                    ]
                }
            },
            "fullUrl": "/MedicationRequest/smart-MedicationRequest-71"
        },
        {
            "request": {
                "method": "PUT",
                "url": "MedicationDispense/smart-MedicationDispense-503"
            },
            "resource": {
                "authorizingPrescription": {
                    "reference": "MedicationRequest/smart-MedicationRequest-71"
                },
                "daysSupply": {
                    "code": "d",
                    "system": "http://unitsofmeasure.org",
                    "unit": "days",
                    "value": 30
                },
                "id": "smart-MedicationDispense-503",
                "medicationCodeableConcept": {
                    "coding": [
                        {
                            "code": "866429",
                            "display": "24 HR Metoprolol 25 MG Extended Release Tablet [Toprol-XL]",
                            "system": "http://www.nlm.nih.gov/research/umls/rxnorm"
                        }
                    ],
                    "text": "24 HR Metoprolol 25 MG Extended Release Tablet [Toprol-XL]"
                },
                "quantity": {
                    "code": "{tablets}",
                    "system": "http://unitsofmeasure.org",
                    "unit": "tablets",
                    "value": 15
                },
                "resourceType": "MedicationDispense",
                "status": "completed",
                "subject": {
                    "reference": "Patient/smart-935270"
                },
                "text": {
                    "div": "<div xmlns=\"http://www.w3.org/1999/xhtml\">Dispensed 15 tablets = 30 day supply of 24 HR Metoprolol 25 MG Extended Release Tablet [Toprol-XL]</div>",
                    "status": "generated"
                },
                "whenHandedOver": "2009-01-04",
                "meta": {
                    "tag": [
                        {
                            "system": "https://smarthealthit.org/tags",
                            "code": "smart-7-2017"
                        }
                    ]
                }
            },
            "fullUrl": "/MedicationDispense/smart-MedicationDispense-503"
        },
        {
            "request": {
                "method": "PUT",
                "url": "Condition/smart-Condition-234"
            },
            "resource": {
                "clinicalStatus": "active",
                "code": {
                    "coding": [
                        {
                            "code": "102594003",
                            "display": "Abnormal ECG",
                            "system": "http://snomed.info/sct"
                        }
                    ],
                    "text": "Abnormal ECG"
                },
                "id": "smart-Condition-234",
                "onsetDateTime": "2006-09-13",
                "resourceType": "Condition",
                "subject": {
                    "reference": "Patient/smart-935270"
                },
                "text": {
                    "div": "<div xmlns=\"http://www.w3.org/1999/xhtml\">Abnormal ECG</div>",
                    "status": "generated"
                },
                "verificationStatus": "confirmed",
                "meta": {
                    "tag": [
                        {
                            "system": "https://smarthealthit.org/tags",
                            "code": "smart-7-2017"
                        }
                    ]
                }
            },
            "fullUrl": "/Condition/smart-Condition-234"
        },
        {
            "request": {
                "method": "PUT",
                "url": "Condition/smart-Condition-235"
            },
            "resource": {
                "clinicalStatus": "active",
                "code": {
                    "coding": [
                        {
                            "code": "272036004",
                            "display": "Asthenia",
                            "system": "http://snomed.info/sct"
                        }
                    ],
                    "text": "Asthenia"
                },
                "id": "smart-Condition-235",
                "onsetDateTime": "2006-09-13",
                "resourceType": "Condition",
                "subject": {
                    "reference": "Patient/smart-935270"
                },
                "text": {
                    "div": "<div xmlns=\"http://www.w3.org/1999/xhtml\">Asthenia</div>",
                    "status": "generated"
                },
                "verificationStatus": "confirmed",
                "meta": {
                    "tag": [
                        {
                            "system": "https://smarthealthit.org/tags",
                            "code": "smart-7-2017"
                        }
                    ]
                }
            },
            "fullUrl": "/Condition/smart-Condition-235"
        },
        {
            "request": {
                "method": "PUT",
                "url": "Condition/smart-Condition-236"
            },
            "resource": {
                "clinicalStatus": "active",
                "code": {
                    "coding": [
                        {
                            "code": "29857009",
                            "display": "Chest pain",
                            "system": "http://snomed.info/sct"
                        }
                    ],
                    "text": "Chest pain"
                },
                "id": "smart-Condition-236",
                "onsetDateTime": "2006-12-06",
                "resourceType": "Condition",
                "subject": {
                    "reference": "Patient/smart-935270"
                },
                "text": {
                    "div": "<div xmlns=\"http://www.w3.org/1999/xhtml\">Chest pain</div>",
                    "status": "generated"
                },
                "verificationStatus": "confirmed",
                "meta": {
                    "tag": [
                        {
                            "system": "https://smarthealthit.org/tags",
                            "code": "smart-7-2017"
                        }
                    ]
                }
            },
            "fullUrl": "/Condition/smart-Condition-236"
        },
        {
            "request": {
                "method": "PUT",
                "url": "Condition/smart-Condition-237"
            },
            "resource": {
                "clinicalStatus": "active",
                "code": {
                    "coding": [
                        {
                            "code": "49727002",
                            "display": "Cough",
                            "system": "http://snomed.info/sct"
                        }
                    ],
                    "text": "Cough"
                },
                "id": "smart-Condition-237",
                "onsetDateTime": "2006-12-06",
                "resourceType": "Condition",
                "subject": {
                    "reference": "Patient/smart-935270"
                },
                "text": {
                    "div": "<div xmlns=\"http://www.w3.org/1999/xhtml\">Cough</div>",
                    "status": "generated"
                },
                "verificationStatus": "confirmed",
                "meta": {
                    "tag": [
                        {
                            "system": "https://smarthealthit.org/tags",
                            "code": "smart-7-2017"
                        }
                    ]
                }
            },
            "fullUrl": "/Condition/smart-Condition-237"
        },
        {
            "request": {
                "method": "PUT",
                "url": "Condition/smart-Condition-238"
            },
            "resource": {
                "clinicalStatus": "active",
                "code": {
                    "coding": [
                        {
                            "code": "38341003",
                            "display": "Essential hypertension",
                            "system": "http://snomed.info/sct"
                        }
                    ],
                    "text": "Essential hypertension"
                },
                "id": "smart-Condition-238",
                "onsetDateTime": "2006-12-06",
                "resourceType": "Condition",
                "subject": {
                    "reference": "Patient/smart-935270"
                },
                "text": {
                    "div": "<div xmlns=\"http://www.w3.org/1999/xhtml\">Essential hypertension</div>",
                    "status": "generated"
                },
                "verificationStatus": "confirmed",
                "meta": {
                    "tag": [
                        {
                            "system": "https://smarthealthit.org/tags",
                            "code": "smart-7-2017"
                        }
                    ]
                }
            },
            "fullUrl": "/Condition/smart-Condition-238"
        },
        {
            "request": {
                "method": "PUT",
                "url": "Condition/smart-Condition-239"
            },
            "resource": {
                "clinicalStatus": "active",
                "code": {
                    "coding": [
                        {
                            "code": "233817007",
                            "display": "Coronary arteriosclerosis",
                            "system": "http://snomed.info/sct"
                        }
                    ],
                    "text": "Coronary arteriosclerosis"
                },
                "id": "smart-Condition-239",
                "onsetDateTime": "2007-11-20",
                "resourceType": "Condition",
                "subject": {
                    "reference": "Patient/smart-935270"
                },
                "text": {
                    "div": "<div xmlns=\"http://www.w3.org/1999/xhtml\">Coronary arteriosclerosis</div>",
                    "status": "generated"
                },
                "verificationStatus": "confirmed",
                "meta": {
                    "tag": [
                        {
                            "system": "https://smarthealthit.org/tags",
                            "code": "smart-7-2017"
                        }
                    ]
                }
            },
            "fullUrl": "/Condition/smart-Condition-239"
        },
        {
            "request": {
                "method": "PUT",
                "url": "Condition/smart-Condition-240"
            },
            "resource": {
                "clinicalStatus": "active",
                "code": {
                    "coding": [
                        {
                            "code": "413838009",
                            "display": "Chronic ischemic heart disease",
                            "system": "http://snomed.info/sct"
                        }
                    ],
                    "text": "Chronic ischemic heart disease"
                },
                "id": "smart-Condition-240",
                "onsetDateTime": "2008-02-06",
                "resourceType": "Condition",
                "subject": {
                    "reference": "Patient/smart-935270"
                },
                "text": {
                    "div": "<div xmlns=\"http://www.w3.org/1999/xhtml\">Chronic ischemic heart disease</div>",
                    "status": "generated"
                },
                "verificationStatus": "confirmed",
                "meta": {
                    "tag": [
                        {
                            "system": "https://smarthealthit.org/tags",
                            "code": "smart-7-2017"
                        }
                    ]
                }
            },
            "fullUrl": "/Condition/smart-Condition-240"
        },
        {
            "request": {
                "method": "PUT",
                "url": "Condition/smart-Condition-241"
            },
            "resource": {
                "clinicalStatus": "active",
                "code": {
                    "coding": [
                        {
                            "code": "55822004",
                            "display": "Hyperlipidemia",
                            "system": "http://snomed.info/sct"
                        }
                    ],
                    "text": "Hyperlipidemia"
                },
                "id": "smart-Condition-241",
                "onsetDateTime": "2008-02-06",
                "resourceType": "Condition",
                "subject": {
                    "reference": "Patient/smart-935270"
                },
                "text": {
                    "div": "<div xmlns=\"http://www.w3.org/1999/xhtml\">Hyperlipidemia</div>",
                    "status": "generated"
                },
                "verificationStatus": "confirmed",
                "meta": {
                    "tag": [
                        {
                            "system": "https://smarthealthit.org/tags",
                            "code": "smart-7-2017"
                        }
                    ]
                }
            },
            "fullUrl": "/Condition/smart-Condition-241"
        },
        {
            "request": {
                "method": "PUT",
                "url": "Condition/smart-Condition-242"
            },
            "resource": {
                "clinicalStatus": "active",
                "code": {
                    "coding": [
                        {
                            "code": "200665006",
                            "display": "Cellulitis and abscess of upper arm and forearm",
                            "system": "http://snomed.info/sct"
                        }
                    ],
                    "text": "Cellulitis and abscess of upper arm and forearm"
                },
                "id": "smart-Condition-242",
                "onsetDateTime": "2008-09-13",
                "resourceType": "Condition",
                "subject": {
                    "reference": "Patient/smart-935270"
                },
                "text": {
                    "div": "<div xmlns=\"http://www.w3.org/1999/xhtml\">Cellulitis and abscess of upper arm and forearm</div>",
                    "status": "generated"
                },
                "verificationStatus": "confirmed",
                "meta": {
                    "tag": [
                        {
                            "system": "https://smarthealthit.org/tags",
                            "code": "smart-7-2017"
                        }
                    ]
                }
            },
            "fullUrl": "/Condition/smart-Condition-242"
        },
        {
            "request": {
                "method": "PUT",
                "url": "Condition/smart-Condition-243"
            },
            "resource": {
                "clinicalStatus": "active",
                "code": {
                    "coding": [
                        {
                            "code": "39812007",
                            "display": "Contusion of forearm",
                            "system": "http://snomed.info/sct"
                        }
                    ],
                    "text": "Contusion of forearm"
                },
                "id": "smart-Condition-243",
                "onsetDateTime": "2008-09-13",
                "resourceType": "Condition",
                "subject": {
                    "reference": "Patient/smart-935270"
                },
                "text": {
                    "div": "<div xmlns=\"http://www.w3.org/1999/xhtml\">Contusion of forearm</div>",
                    "status": "generated"
                },
                "verificationStatus": "confirmed",
                "meta": {
                    "tag": [
                        {
                            "system": "https://smarthealthit.org/tags",
                            "code": "smart-7-2017"
                        }
                    ]
                }
            },
            "fullUrl": "/Condition/smart-Condition-243"
        },
        {
            "request": {
                "method": "PUT",
                "url": "Condition/smart-Condition-244"
            },
            "resource": {
                "clinicalStatus": "active",
                "code": {
                    "coding": [
                        {
                            "code": "302227002",
                            "display": "Disorder of cardiovascular system",
                            "system": "http://snomed.info/sct"
                        }
                    ],
                    "text": "Disorder of cardiovascular system"
                },
                "id": "smart-Condition-244",
                "onsetDateTime": "2008-09-13",
                "resourceType": "Condition",
                "subject": {
                    "reference": "Patient/smart-935270"
                },
                "text": {
                    "div": "<div xmlns=\"http://www.w3.org/1999/xhtml\">Disorder of cardiovascular system</div>",
                    "status": "generated"
                },
                "verificationStatus": "confirmed",
                "meta": {
                    "tag": [
                        {
                            "system": "https://smarthealthit.org/tags",
                            "code": "smart-7-2017"
                        }
                    ]
                }
            },
            "fullUrl": "/Condition/smart-Condition-244"
        },
        {
            "request": {
                "method": "PUT",
                "url": "Condition/smart-Condition-245"
            },
            "resource": {
                "clinicalStatus": "active",
                "code": {
                    "coding": [
                        {
                            "code": "125598003",
                            "display": "Other and unspecified injury to elbow, forearm, and wrist",
                            "system": "http://snomed.info/sct"
                        }
                    ],
                    "text": "Other and unspecified injury to elbow, forearm, and wrist"
                },
                "id": "smart-Condition-245",
                "onsetDateTime": "2008-09-13",
                "resourceType": "Condition",
                "subject": {
                    "reference": "Patient/smart-935270"
                },
                "text": {
                    "div": "<div xmlns=\"http://www.w3.org/1999/xhtml\">Other and unspecified injury to elbow, forearm, and wrist</div>",
                    "status": "generated"
                },
                "verificationStatus": "confirmed",
                "meta": {
                    "tag": [
                        {
                            "system": "https://smarthealthit.org/tags",
                            "code": "smart-7-2017"
                        }
                    ]
                }
            },
            "fullUrl": "/Condition/smart-Condition-245"
        },
        {
            "request": {
                "method": "PUT",
                "url": "Condition/smart-Condition-246"
            },
            "resource": {
                "clinicalStatus": "active",
                "code": {
                    "coding": [
                        {
                            "code": "10601006",
                            "display": "Pain in limb",
                            "system": "http://snomed.info/sct"
                        }
                    ],
                    "text": "Pain in limb"
                },
                "id": "smart-Condition-246",
                "onsetDateTime": "2008-09-13",
                "resourceType": "Condition",
                "subject": {
                    "reference": "Patient/smart-935270"
                },
                "text": {
                    "div": "<div xmlns=\"http://www.w3.org/1999/xhtml\">Pain in limb</div>",
                    "status": "generated"
                },
                "verificationStatus": "confirmed",
                "meta": {
                    "tag": [
                        {
                            "system": "https://smarthealthit.org/tags",
                            "code": "smart-7-2017"
                        }
                    ]
                }
            },
            "fullUrl": "/Condition/smart-Condition-246"
        },
        {
            "request": {
                "method": "PUT",
                "url": "Observation/smart-smokingstatus-44"
            },
            "resource": {
                "category": [
                    {
                        "coding": {
                            "code": "social-history",
                            "display": "Social History",
                            "system": "http://hl7.org/fhir/observation-category"
                        },
                        "text": "Social History"
                    }
                ],
                "code": {
                    "coding": [
                        {
                            "code": "72166-2",
                            "display": "Tobacco smoking status",
                            "system": "http://loinc.org"
                        }
                    ],
                    "text": "Tobacco smoking status"
                },
                "effectiveDateTime": "2016-09-11",
                "id": "smart-smokingstatus-44",
                "identifier": [
                    {
                        "system": "http://www.bmc.nl/zorgportal/identifiers/observations",
                        "use": "official",
                        "value": "smart-44"
                    }
                ],
                "performer": {
                    "reference": "Practitioner/smart-Practitioner-71614502"
                },
                "resourceType": "Observation",
                "status": "final",
                "subject": {
                    "reference": "Patient/smart-935270"
                },
                "text": {
                    "div": "<div xmlns=\"http://www.w3.org/1999/xhtml\">Tobacco smoking status: Unknown if ever smoked</div>",
                    "status": "generated"
                },
                "valueCodeableConcept": {
                    "coding": [
                        {
                            "code": "266927001",
                            "display": "Unknown if ever smoked",
                            "system": "http://snomed.info/sct"
                        }
                    ],
                    "text": "Unknown if ever smoked"
                },
                "meta": {
                    "tag": [
                        {
                            "system": "https://smarthealthit.org/tags",
                            "code": "smart-7-2017"
                        }
                    ]
                }
            },
            "fullUrl": "/Observation/smart-smokingstatus-44"
        },
        {
            "request": {
                "method": "PUT",
                "url": "AllergyIntolerance/smart-AllergyIntolerance-16"
            },
            "resource": {
                "assertedDate": "2000",
                "clinicalStatus": "active",
                "code": {
                    "coding": [
                        {
                            "code": "716186003",
                            "display": "No known allergies",
                            "system": "http://snomed.info/sct"
                        }
                    ],
                    "text": "No known allergies"
                },
                "id": "smart-AllergyIntolerance-16",
                "patient": {
                    "reference": "Patient/smart-935270"
                },
                "resourceType": "AllergyIntolerance",
                "text": {
                    "div": "<div xmlns=\"http://www.w3.org/1999/xhtml\">No known allergies</div>",
                    "status": "generated"
                },
                "verificationStatus": "confirmed",
                "meta": {
                    "tag": [
                        {
                            "system": "https://smarthealthit.org/tags",
                            "code": "smart-7-2017"
                        }
                    ]
                }
            },
            "fullUrl": "/AllergyIntolerance/smart-AllergyIntolerance-16"
        }
    ],
    "resourceType": "Bundle",
    "type": "transaction"
}