{
    "entry": [
        {
            "request": {
                "method": "PUT",
                "url": "Binary/smart-4-photo"
            },
            "resource": {
                "content": "",
                "contentType": "image/jpeg",
                "id": "smart-4-photo",
                "resourceType": "Binary",
                "meta": {
                    "tag": [
                        {
                            "system": "https://smarthealthit.org/tags",
                            "code": "smart-7-2017"
                        }
                    ]
                }
            },
            "fullUrl": "/Binary/smart-4-photo"
        },
        {
            "request": {
                "method": "PUT",
                "url": "DocumentReference/smart-DocumentReference-smart-1-document-ref"
            },
            "resource": {
                "author": [
                    {
                        "reference": "Practitioner/smart-Practitioner-71081332"
                    }
                ],
                "content": [
                    {
                        "attachment": {
                            "contentType": "application/pdf",
                            "hash": "dd8c31ee6a84ce0ab0943f83e23aba6141e71860",
                            "size": 1084656,
                            "url": "/Binary/smart-1-document"
                        }
                    }
                ],
                "created": "2018-04-02T11:14:07+05:00",
                "description": "report4521.pdf",
                "id": "smart-DocumentReference-smart-1-document-ref",
                "indexed": "2018-04-02T11:14:07Z",
                "resourceType": "DocumentReference",
                "status": "current",
                "subject": {
                    "reference": "Patient/smart-99912345"
                },
                "text": {
                    "div": "<div xmlns=\"http://www.w3.org/1999/xhtml\">report4521.pdf</div>",
                    "status": "generated"
                },
                "type": {
                    "coding": [
                        {
                            "code": "34109-9",
                            "display": "Note",
                            "system": "http://loinc.org"
                        }
                    ],
                    "text": "Note"
                },
                "meta": {
                    "tag": [
                        {
                            "system": "https://smarthealthit.org/tags",
                            "code": "smart-7-2017"
                        }
                    ]
                }
            },
            "fullUrl": "/DocumentReference/smart-DocumentReference-smart-1-document-ref"
        },
        {
            "request": {
                "method": "PUT",
                "url": "DocumentReference/smart-DocumentReference-smart-2-document-ref"
            },
            "resource": {
                "author": [
                    {
                        "reference": "Practitioner/smart-Practitioner-71081332"
                    }
                ],
                "content": [
                    {
                        "attachment": {
                            "contentType": "image/png",
                            "hash": "5d0f42ae821116de2cb9e7e273318f77daf3c37a",
                            "size": 37051,
                            "url": "/Binary/smart-2-document"
                        }
                    }
                ],
                "created": "2018-04-02T11:14:07+05:00",
                "description": "reportScan713.png",
                "id": "smart-DocumentReference-smart-2-document-ref",
                "indexed": "2018-04-02T11:14:07Z",
                "resourceType": "DocumentReference",
                "status": "current",
                "subject": {
                    "reference": "Patient/smart-99912345"
                },
                "text": {
                    "div": "<div xmlns=\"http://www.w3.org/1999/xhtml\">reportScan713.png</div>",
                    "status": "generated"
                },
                "type": {
                    "coding": [
                        {
                            "code": "34109-9",
                            "display": "Note",
                            "system": "http://loinc.org"
                        }
                    ],
                    "text": "Note"
                },
                "meta": {
                    "tag": [
                        {
                            "system": "https://smarthealthit.org/tags",
                            "code": "smart-7-2017"
                        }
                    ]
                }
            },
            "fullUrl": "/DocumentReference/smart-DocumentReference-smart-2-document-ref"
        },
        {
            "request": {
                "method": "PUT",
                "url": "DocumentReference/smart-DocumentReference-smart-3-document-ref"
            },
            "resource": {
                "author": [
                    {
                        "reference": "Practitioner/smart-Practitioner-71081332"
                    }
                ],
                "content": [
                    {
                        "attachment": {
                            "contentType": "text/plain",
                            "hash": "6877f0f83d30dccef6d50cac832438731677a91c",
                            "size": 752,
                            "url": "/Binary/smart-3-document"
                        }
                    }
                ],
                "created": "2018-04-02T11:14:07+05:00",
                "description": "notes6267.txt",
                "id": "smart-DocumentReference-smart-3-document-ref",
                "indexed": "2018-04-02T11:14:07Z",
                "resourceType": "DocumentReference",
                "status": "current",
                "subject": {
                    "reference": "Patient/smart-99912345"
                },
                "text": {
                    "div": "<div xmlns=\"http://www.w3.org/1999/xhtml\">notes6267.txt</div>",
                    "status": "generated"
                },
                "type": {
                    "coding": [
                        {
                            "code": "34109-9",
                            "display": "Note",
                            "system": "http://loinc.org"
                        }
                    ],
                    "text": "Note"
                },
                "meta": {
                    "tag": [
                        {
                            "system": "https://smarthealthit.org/tags",
                            "code": "smart-7-2017"
                        }
                    ]
                }
            },
            "fullUrl": "/DocumentReference/smart-DocumentReference-smart-3-document-ref"
        },
        {
            "request": {
                "method": "PUT",
                "url": "Patient/smart-99912345"
            },
            "resource": {
                "active": true,
                "address": [
                    {
                        "city": "Belmont",
                        "country": "USA",
                        "line": [
                            "17 Oak Rd"
                        ],
                        "postalCode": "2478",
                        "state": "MA",
                        "use": "home"
                    }
                ],
                "birthDate": "2004-10-15",
                "gender": "male",
                "generalPractitioner": [
                    {
                        "reference": "Practitioner/smart-Practitioner-71081332"
                    }
                ],
                "id": "smart-99912345",
                "identifier": [
                    {
                        "system": "http://hospital.smarthealthit.org",
                        "type": {
                            "coding": [
                                {
                                    "code": "MR",
                                    "display": "Medical Record Number",
                                    "system": "http://hl7.org/fhir/v2/0203"
                                }
                            ],
                            "text": "Medical Record Number"
                        },
                        "use": "official",
                        "value": "smart-99912345"
                    }
                ],
                "name": [
                    {
                        "family": "Vitalis",
                        "given": [
                            "Allen"
                        ],
                        "use": "official"
                    }
                ],
                "photo": [
                    {
                        "contentType": "image/jpeg",
                        "hash": "40d72d76e60ef31b15137db1a87a0e9a72a4e58e",
                        "size": 20260,
                        "title": "Head photograph of the patient",
                        "url": "/Binary/smart-4-photo"
                    }
                ],
                "resourceType": "Patient",
                "telecom": [
                    {
                        "system": "phone",
                        "use": "home",
                        "value": "800-834-9386"
                    },
                    {
                        "system": "email",
                        "value": "allen.vitalis@example.com"
                    }
                ],
                "text": {
                    "div": "<div xmlns=\"http://www.w3.org/1999/xhtml\">Allen Vitalis</div>",
                    "status": "generated"
                },
                "meta": {
                    "tag": [
                        {
                            "system": "https://smarthealthit.org/tags",
                            "code": "smart-7-2017"
                        }
                    ]
                }
            },
            "fullUrl": "/Patient/smart-99912345"
        },
        {
            "request": {
                "method": "PUT",
                "url": "Encounter/smart-1036"
            },
            "resource": {
                "class": {
                    "code": "ambulatory"
                },
                "id": "smart-1036",
                "period": {
                    "end": "2010-08-12T04:20:00Z",
                    "start": "2010-08-12T04:00:00Z"
                },
                "resourceType": "Encounter",
                "status": "finished",
                "subject": {
                    "reference": "Patient/smart-99912345"
                },
                "text": {
                    "div": "<div xmlns=\"http://www.w3.org/1999/xhtml\">2010-08-12T04:00:00Z: ambulatory encounter</div>",
                    "status": "generated"
                },
                "type": [
                    {
                        "coding": [
                            {
                                "code": "270427003",
                                "display": "Patient-initiated encounter",
                                "system": "http://snomed.info"
                            }
                        ],
                        "text": "Patient-initiated ambulatory encounter"
                    }
                ],
                "meta": {
                    "tag": [
                        {
                            "system": "https://smarthealthit.org/tags",
                            "code": "smart-7-2017"
                        }
                    ]
                }
            },
            "fullUrl": "/Encounter/smart-1036"
        },
        {
            "request": {
                "method": "PUT",
                "url": "Observation/smart-650-height"
            },
            "resource": {
                "category": [
                    {
                        "coding": [
                            {
                                "code": "vital-signs",
                                "display": "Vital Signs",
                                "system": "http://hl7.org/fhir/observation-category"
                            }
                        ],
                        "text": "Vital Signs"
                    }
                ],
                "code": {
                    "coding": [
                        {
                            "code": "8302-2",
                            "display": "height",
                            "system": "http://loinc.org"
                        }
                    ],
                    "text": "height"
                },
                "context": {
                    "reference": "Encounter/smart-1036"
                },
                "effectiveDateTime": "2010-08-12",
                "id": "smart-650-height",
                "identifier": [
                    {
                        "system": "http://www.bmc.nl/zorgportal/identifiers/observations",
                        "use": "official",
                        "value": "smart-650-height"
                    }
                ],
                "performer": [
                    {
                        "reference": "Practitioner/smart-Practitioner-71081332"
                    }
                ],
                "resourceType": "Observation",
                "status": "unknown",
                "subject": {
                    "reference": "Patient/smart-99912345"
                },
                "text": {
                    "div": "<div xmlns=\"http://www.w3.org/1999/xhtml\">2010-08-12: height = 119.0 cm</div>",
                    "status": "generated"
                },
                "valueQuantity": {
                    "code": "cm",
                    "system": "http://unitsofmeasure.org",
                    "unit": "cm",
                    "value": 119
                },
                "meta": {
                    "tag": [
                        {
                            "system": "https://smarthealthit.org/tags",
                            "code": "smart-7-2017"
                        }
                    ]
                }
            },
            "fullUrl": "/Observation/smart-650-height"
        },
        {
            "request": {
                "method": "PUT",
                "url": "Observation/smart-651-heartrate"
            },
            "resource": {
                "category": [
                    {
                        "coding": [
                            {
                                "code": "vital-signs",
                                "display": "Vital Signs",
                                "system": "http://hl7.org/fhir/observation-category"
                            }
                        ],
                        "text": "Vital Signs"
                    }
                ],
                "code": {
                    "coding": [
                        {
                            "code": "8867-4",
                            "display": "heart_rate",
                            "system": "http://loinc.org"
                        }
                    ],
                    "text": "heart_rate"
                },
                "context": {
                    "reference": "Encounter/smart-1036"
                },
                "effectiveDateTime": "2010-08-12",
                "id": "smart-651-heartrate",
                "identifier": [
                    {
                        "system": "http://www.bmc.nl/zorgportal/identifiers/observations",
                        "use": "official",
                        "value": "smart-651-heartrate"
                    }
                ],
                "performer": [
                    {
                        "reference": "Practitioner/smart-Practitioner-71081332"
                    }
                ],
                "resourceType": "Observation",
                "status": "unknown",
                "subject": {
                    "reference": "Patient/smart-99912345"
                },
                "text": {
                    "div": "<div xmlns=\"http://www.w3.org/1999/xhtml\">2010-08-12: heart_rate = 90.0 {beats}/min</div>",
                    "status": "generated"
                },
                "valueQuantity": {
                    "code": "{beats}/min",
                    "system": "http://unitsofmeasure.org",
                    "unit": "{beats}/min",
                    "value": 90
                },
                "meta": {
                    "tag": [
                        {
                            "system": "https://smarthealthit.org/tags",
                            "code": "smart-7-2017"
                        }
                    ]
                }
            },
            "fullUrl": "/Observation/smart-651-heartrate"
        },
        {
            "request": {
                "method": "PUT",
                "url": "Observation/smart-652-respiratoryrate"
            },
            "resource": {
                "category": [
                    {
                        "coding": [
                            {
                                "code": "vital-signs",
                                "display": "Vital Signs",
                                "system": "http://hl7.org/fhir/observation-category"
                            }
                        ],
                        "text": "Vital Signs"
                    }
                ],
                "code": {
                    "coding": [
                        {
                            "code": "9279-1",
                            "display": "respiratory_rate",
                            "system": "http://loinc.org"
                        }
                    ],
                    "text": "respiratory_rate"
                },
                "context": {
                    "reference": "Encounter/smart-1036"
                },
                "effectiveDateTime": "2010-08-12",
                "id": "smart-652-respiratoryrate",
                "identifier": [
                    {
                        "system": "http://www.bmc.nl/zorgportal/identifiers/observations",
                        "use": "official",
                        "value": "smart-652-respiratoryrate"
                    }
                ],
                "performer": [
                    {
                        "reference": "Practitioner/smart-Practitioner-71081332"
                    }
                ],
                "resourceType": "Observation",
                "status": "unknown",
                "subject": {
                    "reference": "Patient/smart-99912345"
                },
                "text": {
                    "div": "<div xmlns=\"http://www.w3.org/1999/xhtml\">2010-08-12: respiratory_rate = 16.0 {breaths}/min</div>",
                    "status": "generated"
                },
                "valueQuantity": {
                    "code": "{breaths}/min",
                    "system": "http://unitsofmeasure.org",
                    "unit": "{breaths}/min",
                    "value": 16
                },
                "meta": {
                    "tag": [
                        {
                            "system": "https://smarthealthit.org/tags",
                            "code": "smart-7-2017"
                        }
                    ]
                }
            },
            "fullUrl": "/Observation/smart-652-respiratoryrate"
        },
        {
            "request": {
                "method": "PUT",
                "url": "Observation/smart-653-temperature"
            },
            "resource": {
                "category": [
                    {
                        "coding": [
                            {
                                "code": "vital-signs",
                                "display": "Vital Signs",
                                "system": "http://hl7.org/fhir/observation-category"
                            }
                        ],
                        "text": "Vital Signs"
                    }
                ],
                "code": {
                    "coding": [
                        {
                            "code": "8310-5",
                            "display": "temperature",
                            "system": "http://loinc.org"
                        }
                    ],
                    "text": "temperature"
                },
                "context": {
                    "reference": "Encounter/smart-1036"
                },
                "effectiveDateTime": "2010-08-12",
                "id": "smart-653-temperature",
                "identifier": [
                    {
                        "system": "http://www.bmc.nl/zorgportal/identifiers/observations",
                        "use": "official",
                        "value": "smart-653-temperature"
                    }
                ],
                "performer": [
                    {
                        "reference": "Practitioner/smart-Practitioner-71081332"
                    }
                ],
                "resourceType": "Observation",
                "status": "unknown",
                "subject": {
                    "reference": "Patient/smart-99912345"
                },
                "text": {
                    "div": "<div xmlns=\"http://www.w3.org/1999/xhtml\">2010-08-12: temperature = 37.0 Cel</div>",
                    "status": "generated"
                },
                "valueQuantity": {
                    "code": "Cel",
                    "system": "http://unitsofmeasure.org",
                    "unit": "Cel",
                    "value": 37
                },
                "meta": {
                    "tag": [
                        {
                            "system": "https://smarthealthit.org/tags",
                            "code": "smart-7-2017"
                        }
                    ]
                }
            },
            "fullUrl": "/Observation/smart-653-temperature"
        },
        {
            "request": {
                "method": "PUT",
                "url": "Observation/smart-654-weight"
            },
            "resource": {
                "category": [
                    {
                        "coding": [
                            {
                                "code": "vital-signs",
                                "display": "Vital Signs",
                                "system": "http://hl7.org/fhir/observation-category"
                            }
                        ],
                        "text": "Vital Signs"
                    }
                ],
                "code": {
                    "coding": [
                        {
                            "code": "3141-9",
                            "display": "weight",
                            "system": "http://loinc.org"
                        }
                    ],
                    "text": "weight"
                },
                "context": {
                    "reference": "Encounter/smart-1036"
                },
                "effectiveDateTime": "2010-08-12",
                "id": "smart-654-weight",
                "identifier": [
                    {
                        "system": "http://www.bmc.nl/zorgportal/identifiers/observations",
                        "use": "official",
                        "value": "smart-654-weight"
                    }
                ],
                "performer": [
                    {
                        "reference": "Practitioner/smart-Practitioner-71081332"
                    }
                ],
                "resourceType": "Observation",
                "status": "unknown",
                "subject": {
                    "reference": "Patient/smart-99912345"
                },
                "text": {
                    "div": "<div xmlns=\"http://www.w3.org/1999/xhtml\">2010-08-12: weight = 23.0 kg</div>",
                    "status": "generated"
                },
                "valueQuantity": {
                    "code": "kg",
                    "system": "http://unitsofmeasure.org",
                    "unit": "kg",
                    "value": 23
                },
                "meta": {
                    "tag": [
                        {
                            "system": "https://smarthealthit.org/tags",
                            "code": "smart-7-2017"
                        }
                    ]
                }
            },
            "fullUrl": "/Observation/smart-654-weight"
        },
        {
            "request": {
                "method": "PUT",
                "url": "Observation/smart-655-bmi"
            },
            "resource": {
                "category": [
                    {
                        "coding": [
                            {
                                "code": "vital-signs",
                                "display": "Vital Signs",
                                "system": "http://hl7.org/fhir/observation-category"
                            }
                        ],
                        "text": "Vital Signs"
                    }
                ],
                "code": {
                    "coding": [
                        {
                            "code": "39156-5",
                            "display": "bmi",
                            "system": "http://loinc.org"
                        }
                    ],
                    "text": "bmi"
                },
                "context": {
                    "reference": "Encounter/smart-1036"
                },
                "effectiveDateTime": "2010-08-12",
                "id": "smart-655-bmi",
                "identifier": [
                    {
                        "system": "http://www.bmc.nl/zorgportal/identifiers/observations",
                        "use": "official",
                        "value": "smart-655-bmi"
                    }
                ],
                "performer": [
                    {
                        "reference": "Practitioner/smart-Practitioner-71081332"
                    }
                ],
                "resourceType": "Observation",
                "status": "unknown",
                "subject": {
                    "reference": "Patient/smart-99912345"
                },
                "text": {
                    "div": "<div xmlns=\"http://www.w3.org/1999/xhtml\">2010-08-12: bmi = 16.2 kg/m2</div>",
                    "status": "generated"
                },
                "valueQuantity": {
                    "code": "kg/m2",
                    "system": "http://unitsofmeasure.org",
                    "unit": "kg/m2",
                    "value": 16.2
                },
                "meta": {
                    "tag": [
                        {
                            "system": "https://smarthealthit.org/tags",
                            "code": "smart-7-2017"
                        }
                    ]
                }
            },
            "fullUrl": "/Observation/smart-655-bmi"
        },
        {
            "request": {
                "method": "PUT",
                "url": "Observation/smart-656-oxygensaturation"
            },
            "resource": {
                "category": [
                    {
                        "coding": [
                            {
                                "code": "vital-signs",
                                "display": "Vital Signs",
                                "system": "http://hl7.org/fhir/observation-category"
                            }
                        ],
                        "text": "Vital Signs"
                    }
                ],
                "code": {
                    "coding": [
                        {
                            "code": "2710-2",
                            "display": "oxygen_saturation",
                            "system": "http://loinc.org"
                        }
                    ],
                    "text": "oxygen_saturation"
                },
                "context": {
                    "reference": "Encounter/smart-1036"
                },
                "effectiveDateTime": "2010-08-12",
                "id": "smart-656-oxygensaturation",
                "identifier": [
                    {
                        "system": "http://www.bmc.nl/zorgportal/identifiers/observations",
                        "use": "official",
                        "value": "smart-656-oxygensaturation"
                    }
                ],
                "performer": [
                    {
                        "reference": "Practitioner/smart-Practitioner-71081332"
                    }
                ],
                "resourceType": "Observation",
                "status": "unknown",
                "subject": {
                    "reference": "Patient/smart-99912345"
                },
                "text": {
                    "div": "<div xmlns=\"http://www.w3.org/1999/xhtml\">2010-08-12: oxygen_saturation = 99.0 %{HemoglobinSaturation}</div>",
                    "status": "generated"
                },
                "valueQuantity": {
                    "code": "%{HemoglobinSaturation}",
                    "system": "http://unitsofmeasure.org",
                    "unit": "%{HemoglobinSaturation}",
                    "value": 99
                },
                "meta": {
                    "tag": [
                        {
                            "system": "https://smarthealthit.org/tags",
                            "code": "smart-7-2017"
                        }
                    ]
                }
            },
            "fullUrl": "/Observation/smart-656-oxygensaturation"
        },
        {
            "request": {
                "method": "PUT",
                "url": "Observation/smart-657-headcircumference"
            },
            "resource": {
                "category": [
                    {
                        "coding": [
                            {
                                "code": "vital-signs",
                                "display": "Vital Signs",
                                "system": "http://hl7.org/fhir/observation-category"
                            }
                        ],
                        "text": "Vital Signs"
                    }
                ],
                "code": {
                    "coding": [
                        {
                            "code": "8287-5",
                            "display": "head_circumference",
                            "system": "http://loinc.org"
                        }
                    ],
                    "text": "head_circumference"
                },
                "context": {
                    "reference": "Encounter/smart-1036"
                },
                "effectiveDateTime": "2010-08-12",
                "id": "smart-657-headcircumference",
                "identifier": [
                    {
                        "system": "http://www.bmc.nl/zorgportal/identifiers/observations",
                        "use": "official",
                        "value": "smart-657-headcircumference"
                    }
                ],
                "performer": [
                    {
                        "reference": "Practitioner/smart-Practitioner-71081332"
                    }
                ],
                "resourceType": "Observation",
                "status": "unknown",
                "subject": {
                    "reference": "Patient/smart-99912345"
                },
                "text": {
                    "div": "<div xmlns=\"http://www.w3.org/1999/xhtml\">2010-08-12: head_circumference = 51.2 cm</div>",
                    "status": "generated"
                },
                "valueQuantity": {
                    "code": "cm",
                    "system": "http://unitsofmeasure.org",
                    "unit": "cm",
                    "value": 51.2
                },
                "meta": {
                    "tag": [
                        {
                            "system": "https://smarthealthit.org/tags",
                            "code": "smart-7-2017"
                        }
                    ]
                }
            },
            "fullUrl": "/Observation/smart-657-headcircumference"
        },
        {
            "request": {
                "method": "PUT",
                "url": "Observation/smart-3506-lab"
            },
            "resource": {
                "category": [
                    {
                        "coding": [
                            {
                                "code": "laboratory",
                                "display": "Laboratory",
                                "system": "http://hl7.org/fhir/observation-category"
                            }
                        ],
                        "text": "Laboratory"
                    }
                ],
                "code": {
                    "coding": [
                        {
                            "code": "38478-4",
                            "display": "Biotinidase DBS Ql",
                            "system": "http://loinc.org"
                        }
                    ],
                    "text": "Biotinidase DBS Ql"
                },
                "effectiveDateTime": "2007-04-21",
                "id": "smart-3506-lab",
                "identifier": [
                    {
                        "system": "http://www.bmc.nl/zorgportal/identifiers/observations",
                        "use": "official",
                        "value": "smart-3506-lab"
                    }
                ],
                "performer": [
                    {
                        "reference": "Practitioner/smart-Practitioner-71081332"
                    }
                ],
                "resourceType": "Observation",
                "status": "unknown",
                "subject": {
                    "reference": "Patient/smart-99912345"
                },
                "text": {
                    "div": "<div xmlns=\"http://www.w3.org/1999/xhtml\">2007-04-21: Biotinidase DBS Ql = Normal </div>",
                    "status": "generated"
                },
                "valueString": "Normal",
                "meta": {
                    "tag": [
                        {
                            "system": "https://smarthealthit.org/tags",
                            "code": "smart-7-2017"
                        }
                    ]
                }
            },
            "fullUrl": "/Observation/smart-3506-lab"
        },
        {
            "request": {
                "method": "PUT",
                "url": "Observation/smart-3507-lab"
            },
            "resource": {
                "category": [
                    {
                        "coding": [
                            {
                                "code": "laboratory",
                                "display": "Laboratory",
                                "system": "http://hl7.org/fhir/observation-category"
                            }
                        ],
                        "text": "Laboratory"
                    }
                ],
                "code": {
                    "coding": [
                        {
                            "code": "29571-7",
                            "display": "Phe DBS Ql",
                            "system": "http://loinc.org"
                        }
                    ],
                    "text": "Phe DBS Ql"
                },
                "effectiveDateTime": "2007-09-08",
                "id": "smart-3507-lab",
                "identifier": [
                    {
                        "system": "http://www.bmc.nl/zorgportal/identifiers/observations",
                        "use": "official",
                        "value": "smart-3507-lab"
                    }
                ],
                "performer": [
                    {
                        "reference": "Practitioner/smart-Practitioner-71081332"
                    }
                ],
                "resourceType": "Observation",
                "status": "unknown",
                "subject": {
                    "reference": "Patient/smart-99912345"
                },
                "text": {
                    "div": "<div xmlns=\"http://www.w3.org/1999/xhtml\">2007-09-08: Phe DBS Ql = Normal </div>",
                    "status": "generated"
                },
                "valueString": "Normal",
                "meta": {
                    "tag": [
                        {
                            "system": "https://smarthealthit.org/tags",
                            "code": "smart-7-2017"
                        }
                    ]
                }
            },
            "fullUrl": "/Observation/smart-3507-lab"
        },
        {
            "request": {
                "method": "PUT",
                "url": "MedicationRequest/smart-MedicationRequest-295"
            },
            "resource": {
                "dosageInstruction": [
                    {
                        "doseQuantity": {
                            "code": "mL",
                            "system": "http://unitsofmeasure.org",
                            "unit": "mL",
                            "value": 7
                        },
                        "text": "7 mL bid x 10 days",
                        "timing": {
                            "repeat": {
                                "boundsPeriod": {
                                    "start": "2006-10-08"
                                },
                                "frequency": 2,
                                "period": 1,
                                "periodUnit": "d"
                            }
                        }
                    }
                ],
                "id": "smart-MedicationRequest-295",
                "intent": "order",
                "medicationCodeableConcept": {
                    "coding": [
                        {
                            "code": "309054",
                            "display": "Cefdinir 25 MG/ML Oral Suspension",
                            "system": "http://www.nlm.nih.gov/research/umls/rxnorm"
                        }
                    ],
                    "text": "Cefdinir 25 MG/ML Oral Suspension"
                },
                "resourceType": "MedicationRequest",
                "status": "active",
                "subject": {
                    "reference": "Patient/smart-99912345"
                },
                "text": {
                    "div": "<div xmlns=\"http://www.w3.org/1999/xhtml\">Cefdinir 25 MG/ML Oral Suspension (rxnorm: 309054)</div>",
                    "status": "generated"
                },
                "meta": {
                    "tag": [
                        {
                            "system": "https://smarthealthit.org/tags",
                            "code": "smart-7-2017"
                        }
                    ]
                }
            },
            "fullUrl": "/MedicationRequest/smart-MedicationRequest-295"
        },
        {
            "request": {
                "method": "PUT",
                "url": "MedicationRequest/smart-MedicationRequest-296"
            },
            "resource": {
                "dosageInstruction": [
                    {
                        "text": "apply x1 as directed"
                    }
                ],
                "id": "smart-MedicationRequest-296",
                "intent": "order",
                "medicationCodeableConcept": {
                    "coding": [
                        {
                            "code": "312320",
                            "display": "Permethrin 10 MG/ML Topical Lotion",
                            "system": "http://www.nlm.nih.gov/research/umls/rxnorm"
                        }
                    ],
                    "text": "Permethrin 10 MG/ML Topical Lotion"
                },
                "resourceType": "MedicationRequest",
                "status": "active",
                "subject": {
                    "reference": "Patient/smart-99912345"
                },
                "text": {
                    "div": "<div xmlns=\"http://www.w3.org/1999/xhtml\">Permethrin 10 MG/ML Topical Lotion (rxnorm: 312320)</div>",
                    "status": "generated"
                },
                "meta": {
                    "tag": [
                        {
                            "system": "https://smarthealthit.org/tags",
                            "code": "smart-7-2017"
                        }
                    ]
                }
            },
            "fullUrl": "/MedicationRequest/smart-MedicationRequest-296"
        },
        {
            "request": {
                "method": "PUT",
                "url": "Condition/smart-Condition-557"
            },
            "resource": {
                "clinicalStatus": "active",
                "code": {
                    "coding": [
                        {
                            "code": "65363002",
                            "display": "otitis media",
                            "system": "http://snomed.info/sct"
                        }
                    ],
                    "text": "otitis media"
                },
                "id": "smart-Condition-557",
                "onsetDateTime": "2006-07-18",
                "resourceType": "Condition",
                "subject": {
                    "reference": "Patient/smart-99912345"
                },
                "text": {
                    "div": "<div xmlns=\"http://www.w3.org/1999/xhtml\">otitis media</div>",
                    "status": "generated"
                },
                "verificationStatus": "confirmed",
                "meta": {
                    "tag": [
                        {
                            "system": "https://smarthealthit.org/tags",
                            "code": "smart-7-2017"
                        }
                    ]
                }
            },
            "fullUrl": "/Condition/smart-Condition-557"
        },
        {
            "request": {
                "method": "PUT",
                "url": "Condition/smart-Condition-558"
            },
            "resource": {
                "clinicalStatus": "active",
                "code": {
                    "coding": [
                        {
                            "code": "425229001",
                            "display": "foreign body in larynx",
                            "system": "http://snomed.info/sct"
                        }
                    ],
                    "text": "foreign body in larynx"
                },
                "id": "smart-Condition-558",
                "onsetDateTime": "2008-10-06",
                "resourceType": "Condition",
                "subject": {
                    "reference": "Patient/smart-99912345"
                },
                "text": {
                    "div": "<div xmlns=\"http://www.w3.org/1999/xhtml\">foreign body in larynx</div>",
                    "status": "generated"
                },
                "verificationStatus": "confirmed",
                "meta": {
                    "tag": [
                        {
                            "system": "https://smarthealthit.org/tags",
                            "code": "smart-7-2017"
                        }
                    ]
                }
            },
            "fullUrl": "/Condition/smart-Condition-558"
        },
        {
            "request": {
                "method": "PUT",
                "url": "Procedure/smart-Procedure-23"
            },
            "resource": {
                "code": {
                    "coding": [
                        {
                            "code": "80146002",
                            "display": "Appendectomy",
                            "system": "http://snomed.info/sct"
                        }
                    ],
                    "text": "Appendectomy"
                },
                "id": "smart-Procedure-23",
                "performedDateTime": "2011-02-15",
                "resourceType": "Procedure",
                "status": "completed",
                "subject": {
                    "reference": "Patient/smart-99912345"
                },
                "text": {
                    "div": "<div xmlns=\"http://www.w3.org/1999/xhtml\">Appendectomy</div>",
                    "status": "generated"
                },
                "meta": {
                    "tag": [
                        {
                            "system": "https://smarthealthit.org/tags",
                            "code": "smart-7-2017"
                        }
                    ]
                }
            },
            "fullUrl": "/Procedure/smart-Procedure-23"
        },
        {
            "request": {
                "method": "PUT",
                "url": "Immunization/smart-Immunization-28"
            },
            "resource": {
                "date": "2010-05-12T04:00:00Z",
                "id": "smart-Immunization-28",
                "notGiven": true,
                "patient": {
                    "reference": "Patient/smart-99912345"
                },
                "primarySource": true,
                "resourceType": "Immunization",
                "status": "completed",
                "text": {
                    "div": "<div xmlns=\"http://www.w3.org/1999/xhtml\">typhoid, oral</div>",
                    "status": "generated"
                },
                "vaccineCode": {
                    "coding": [
                        {
                            "code": "25",
                            "display": "typhoid, oral",
                            "system": "http://www2a.cdc.gov/vaccines/IIS/IISStandards/vaccines.asp?rpt=cvx"
                        }
                    ],
                    "text": "typhoid, oral"
                },
                "meta": {
                    "tag": [
                        {
                            "system": "https://smarthealthit.org/tags",
                            "code": "smart-7-2017"
                        }
                    ]
                }
            },
            "fullUrl": "/Immunization/smart-Immunization-28"
        },
        {
            "request": {
                "method": "PUT",
                "url": "AllergyIntolerance/smart-AllergyIntolerance-63"
            },
            "resource": {
                "assertedDate": "2008-05-05",
                "clinicalStatus": "active",
                "code": {
                    "coding": [
                        {
                            "code": "716186003",
                            "display": "No known allergies",
                            "system": "http://snomed.info/sct"
                        }
                    ],
                    "text": "No known allergies"
                },
                "id": "smart-AllergyIntolerance-63",
                "patient": {
                    "reference": "Patient/smart-99912345"
                },
                "resourceType": "AllergyIntolerance",
                "text": {
                    "div": "<div xmlns=\"http://www.w3.org/1999/xhtml\">No known allergies</div>",
                    "status": "generated"
                },
                "verificationStatus": "confirmed",
                "meta": {
                    "tag": [
                        {
                            "system": "https://smarthealthit.org/tags",
                            "code": "smart-7-2017"
                        }
                    ]
                }
            },
            "fullUrl": "/AllergyIntolerance/smart-AllergyIntolerance-63"
        },
        {
            "request": {
                "method": "PUT",
                "url": "Binary/smart-4-note"
            },
            "resource": {
                "content": "UGF0aWVudCdzIG1vdGhlciB0ZWxlcGhvbmVkIHRvIHNheSB0aGF0IGhlIG5vIGxvbmdlciBuZWVkcyBkb2N1bWVudGF0aW9uIG9mIGEgc3BvcnRzIHBoeXNpY2FsIGZvciBzY2hvb2w=",
                "contentType": "text/plain",
                "id": "smart-4-note",
                "resourceType": "Binary",
                "meta": {
                    "tag": [
                        {
                            "system": "https://smarthealthit.org/tags",
                            "code": "smart-7-2017"
                        }
                    ]
                }
            },
            "fullUrl": "/Binary/smart-4-note"
        },
        {
            "request": {
                "method": "PUT",
                "url": "DocumentReference/smart-DocumentReference-smart-4-note-ref"
            },
            "resource": {
                "author": [
                    {
                        "reference": "Practitioner/smart-Practitioner-71081332"
                    }
                ],
                "content": [
                    {
                        "attachment": {
                            "contentType": "text/plain",
                            "hash": "b4511c3a6dc7b7344ce50242ac444a20ff53e891",
                            "size": 104,
                            "url": "/Binary/smart-4-note"
                        }
                    }
                ],
                "created": "2018-04-02T11:14:07+05:00",
                "description": "Note",
                "id": "smart-DocumentReference-smart-4-note-ref",
                "indexed": "2018-04-02T11:14:07Z",
                "resourceType": "DocumentReference",
                "status": "current",
                "subject": {
                    "reference": "Patient/smart-99912345"
                },
                "text": {
                    "div": "<div xmlns=\"http://www.w3.org/1999/xhtml\">Note</div>",
                    "status": "generated"
                },
                "type": {
                    "coding": [
                        {
                            "code": "34109-9",
                            "display": "Note",
                            "system": "http://loinc.org"
                        }
                    ],
                    "text": "Note"
                },
                "meta": {
                    "tag": [
                        {
                            "system": "https://smarthealthit.org/tags",
                            "code": "smart-7-2017"
                        }
                    ]
                }
            },
            "fullUrl": "/DocumentReference/smart-DocumentReference-smart-4-note-ref"
        }
    ],
    "resourceType": "Bundle",
    "type": "transaction"
}