{
    "entry": [
        {
            "request": {
                "method": "PUT",
                "url": "Patient/smart-7777701"
            },
            "resource": {
                "active": true,
                "birthDate": "2015-03-11",
                "gender": "male",
                "generalPractitioner": [
                    {
                        "reference": "Practitioner/smart-Practitioner-71081332"
                    }
                ],
                "id": "smart-7777701",
                "identifier": [
                    {
                        "system": "http://hospital.smarthealthit.org",
                        "type": {
                            "coding": [
                                {
                                    "code": "MR",
                                    "display": "Medical Record Number",
                                    "system": "http://hl7.org/fhir/v2/0203"
                                }
                            ],
                            "text": "Medical Record Number"
                        },
                        "use": "official",
                        "value": "smart-7777701"
                    }
                ],
                "name": [
                    {
                        "family": "Richey",
                        "given": [
                            "Steve"
                        ],
                        "use": "official"
                    }
                ],
                "resourceType": "Patient",
                "text": {
                    "div": "<div xmlns=\"http://www.w3.org/1999/xhtml\">Steve Richey</div>",
                    "status": "generated"
                },
                "meta": {
                    "tag": [
                        {
                            "system": "https://smarthealthit.org/tags",
                            "code": "smart-7-2017"
                        }
                    ]
                }
            },
            "fullUrl": "/Patient/smart-7777701"
        },
        {
            "request": {
                "method": "PUT",
                "url": "Observation/smart-7777701-gestage"
            },
            "resource": {
                "category": [
                    {
                        "coding": [
                            {
                                "code": "exam",
                                "display": "Exam",
                                "system": "http://hl7.org/fhir/observation-category"
                            }
                        ],
                        "text": "Exam"
                    }
                ],
                "code": {
                    "coding": [
                        {
                            "code": "18185-9",
                            "display": "Gestational age at birth",
                            "system": "http://loinc.org"
                        }
                    ],
                    "text": "Gestational age at birth"
                },
                "effectiveDateTime": "2015-03-11",
                "id": "smart-7777701-gestage",
                "identifier": [
                    {
                        "system": "http://www.bmc.nl/zorgportal/identifiers/observations",
                        "use": "official",
                        "value": "smart-7777701-gestage"
                    }
                ],
                "performer": [
                    {
                        "reference": "Practitioner/smart-Practitioner-71081332"
                    }
                ],
                "resourceType": "Observation",
                "status": "unknown",
                "subject": {
                    "reference": "Patient/smart-7777701"
                },
                "text": {
                    "div": "<div xmlns=\"http://www.w3.org/1999/xhtml\">2015-03-11: Gestational age at birth = 28.3 weeks</div>",
                    "status": "generated"
                },
                "valueQuantity": {
                    "code": "wk",
                    "system": "http://unitsofmeasure.org",
                    "unit": "weeks",
                    "value": 28.3
                },
                "meta": {
                    "tag": [
                        {
                            "system": "https://smarthealthit.org/tags",
                            "code": "smart-7-2017"
                        }
                    ]
                }
            },
            "fullUrl": "/Observation/smart-7777701-gestage"
        },
        {
            "request": {
                "method": "PUT",
                "url": "Encounter/smart-967"
            },
            "resource": {
                "class": {
                    "code": "ambulatory"
                },
                "id": "smart-967",
                "period": {
                    "end": "2015-03-11",
                    "start": "2015-03-11"
                },
                "resourceType": "Encounter",
                "status": "finished",
                "subject": {
                    "reference": "Patient/smart-7777701"
                },
                "text": {
                    "div": "<div xmlns=\"http://www.w3.org/1999/xhtml\">2015-03-11: ambulatory encounter</div>",
                    "status": "generated"
                },
                "type": [
                    {
                        "coding": [
                            {
                                "code": "270427003",
                                "display": "Patient-initiated encounter",
                                "system": "http://snomed.info"
                            }
                        ],
                        "text": "Patient-initiated ambulatory encounter"
                    }
                ],
                "meta": {
                    "tag": [
                        {
                            "system": "https://smarthealthit.org/tags",
                            "code": "smart-7-2017"
                        }
                    ]
                }
            },
            "fullUrl": "/Encounter/smart-967"
        },
        {
            "request": {
                "method": "PUT",
                "url": "Encounter/smart-968"
            },
            "resource": {
                "class": {
                    "code": "ambulatory"
                },
                "id": "smart-968",
                "period": {
                    "end": "2015-05-17",
                    "start": "2015-05-17"
                },
                "resourceType": "Encounter",
                "status": "finished",
                "subject": {
                    "reference": "Patient/smart-7777701"
                },
                "text": {
                    "div": "<div xmlns=\"http://www.w3.org/1999/xhtml\">2015-05-17: ambulatory encounter</div>",
                    "status": "generated"
                },
                "type": [
                    {
                        "coding": [
                            {
                                "code": "270427003",
                                "display": "Patient-initiated encounter",
                                "system": "http://snomed.info"
                            }
                        ],
                        "text": "Patient-initiated ambulatory encounter"
                    }
                ],
                "meta": {
                    "tag": [
                        {
                            "system": "https://smarthealthit.org/tags",
                            "code": "smart-7-2017"
                        }
                    ]
                }
            },
            "fullUrl": "/Encounter/smart-968"
        },
        {
            "request": {
                "method": "PUT",
                "url": "Encounter/smart-969"
            },
            "resource": {
                "class": {
                    "code": "ambulatory"
                },
                "id": "smart-969",
                "period": {
                    "end": "2015-05-26",
                    "start": "2015-05-26"
                },
                "resourceType": "Encounter",
                "status": "finished",
                "subject": {
                    "reference": "Patient/smart-7777701"
                },
                "text": {
                    "div": "<div xmlns=\"http://www.w3.org/1999/xhtml\">2015-05-26: ambulatory encounter</div>",
                    "status": "generated"
                },
                "type": [
                    {
                        "coding": [
                            {
                                "code": "270427003",
                                "display": "Patient-initiated encounter",
                                "system": "http://snomed.info"
                            }
                        ],
                        "text": "Patient-initiated ambulatory encounter"
                    }
                ],
                "meta": {
                    "tag": [
                        {
                            "system": "https://smarthealthit.org/tags",
                            "code": "smart-7-2017"
                        }
                    ]
                }
            },
            "fullUrl": "/Encounter/smart-969"
        },
        {
            "request": {
                "method": "PUT",
                "url": "Encounter/smart-970"
            },
            "resource": {
                "class": {
                    "code": "ambulatory"
                },
                "id": "smart-970",
                "period": {
                    "end": "2015-06-10",
                    "start": "2015-06-10"
                },
                "resourceType": "Encounter",
                "status": "finished",
                "subject": {
                    "reference": "Patient/smart-7777701"
                },
                "text": {
                    "div": "<div xmlns=\"http://www.w3.org/1999/xhtml\">2015-06-10: ambulatory encounter</div>",
                    "status": "generated"
                },
                "type": [
                    {
                        "coding": [
                            {
                                "code": "270427003",
                                "display": "Patient-initiated encounter",
                                "system": "http://snomed.info"
                            }
                        ],
                        "text": "Patient-initiated ambulatory encounter"
                    }
                ],
                "meta": {
                    "tag": [
                        {
                            "system": "https://smarthealthit.org/tags",
                            "code": "smart-7-2017"
                        }
                    ]
                }
            },
            "fullUrl": "/Encounter/smart-970"
        },
        {
            "request": {
                "method": "PUT",
                "url": "Encounter/smart-971"
            },
            "resource": {
                "class": {
                    "code": "ambulatory"
                },
                "id": "smart-971",
                "period": {
                    "end": "2015-07-05",
                    "start": "2015-07-05"
                },
                "resourceType": "Encounter",
                "status": "finished",
                "subject": {
                    "reference": "Patient/smart-7777701"
                },
                "text": {
                    "div": "<div xmlns=\"http://www.w3.org/1999/xhtml\">2015-07-05: ambulatory encounter</div>",
                    "status": "generated"
                },
                "type": [
                    {
                        "coding": [
                            {
                                "code": "270427003",
                                "display": "Patient-initiated encounter",
                                "system": "http://snomed.info"
                            }
                        ],
                        "text": "Patient-initiated ambulatory encounter"
                    }
                ],
                "meta": {
                    "tag": [
                        {
                            "system": "https://smarthealthit.org/tags",
                            "code": "smart-7-2017"
                        }
                    ]
                }
            },
            "fullUrl": "/Encounter/smart-971"
        },
        {
            "request": {
                "method": "PUT",
                "url": "Encounter/smart-972"
            },
            "resource": {
                "class": {
                    "code": "ambulatory"
                },
                "id": "smart-972",
                "period": {
                    "end": "2015-07-29",
                    "start": "2015-07-29"
                },
                "resourceType": "Encounter",
                "status": "finished",
                "subject": {
                    "reference": "Patient/smart-7777701"
                },
                "text": {
                    "div": "<div xmlns=\"http://www.w3.org/1999/xhtml\">2015-07-29: ambulatory encounter</div>",
                    "status": "generated"
                },
                "type": [
                    {
                        "coding": [
                            {
                                "code": "270427003",
                                "display": "Patient-initiated encounter",
                                "system": "http://snomed.info"
                            }
                        ],
                        "text": "Patient-initiated ambulatory encounter"
                    }
                ],
                "meta": {
                    "tag": [
                        {
                            "system": "https://smarthealthit.org/tags",
                            "code": "smart-7-2017"
                        }
                    ]
                }
            },
            "fullUrl": "/Encounter/smart-972"
        },
        {
            "request": {
                "method": "PUT",
                "url": "Encounter/smart-973"
            },
            "resource": {
                "class": {
                    "code": "ambulatory"
                },
                "id": "smart-973",
                "period": {
                    "end": "2015-08-04",
                    "start": "2015-08-04"
                },
                "resourceType": "Encounter",
                "status": "finished",
                "subject": {
                    "reference": "Patient/smart-7777701"
                },
                "text": {
                    "div": "<div xmlns=\"http://www.w3.org/1999/xhtml\">2015-08-04: ambulatory encounter</div>",
                    "status": "generated"
                },
                "type": [
                    {
                        "coding": [
                            {
                                "code": "270427003",
                                "display": "Patient-initiated encounter",
                                "system": "http://snomed.info"
                            }
                        ],
                        "text": "Patient-initiated ambulatory encounter"
                    }
                ],
                "meta": {
                    "tag": [
                        {
                            "system": "https://smarthealthit.org/tags",
                            "code": "smart-7-2017"
                        }
                    ]
                }
            },
            "fullUrl": "/Encounter/smart-973"
        },
        {
            "request": {
                "method": "PUT",
                "url": "Encounter/smart-974"
            },
            "resource": {
                "class": {
                    "code": "ambulatory"
                },
                "id": "smart-974",
                "period": {
                    "end": "2015-09-03",
                    "start": "2015-09-03"
                },
                "resourceType": "Encounter",
                "status": "finished",
                "subject": {
                    "reference": "Patient/smart-7777701"
                },
                "text": {
                    "div": "<div xmlns=\"http://www.w3.org/1999/xhtml\">2015-09-03: ambulatory encounter</div>",
                    "status": "generated"
                },
                "type": [
                    {
                        "coding": [
                            {
                                "code": "270427003",
                                "display": "Patient-initiated encounter",
                                "system": "http://snomed.info"
                            }
                        ],
                        "text": "Patient-initiated ambulatory encounter"
                    }
                ],
                "meta": {
                    "tag": [
                        {
                            "system": "https://smarthealthit.org/tags",
                            "code": "smart-7-2017"
                        }
                    ]
                }
            },
            "fullUrl": "/Encounter/smart-974"
        },
        {
            "request": {
                "method": "PUT",
                "url": "Encounter/smart-975"
            },
            "resource": {
                "class": {
                    "code": "ambulatory"
                },
                "id": "smart-975",
                "period": {
                    "end": "2015-09-13",
                    "start": "2015-09-13"
                },
                "resourceType": "Encounter",
                "status": "finished",
                "subject": {
                    "reference": "Patient/smart-7777701"
                },
                "text": {
                    "div": "<div xmlns=\"http://www.w3.org/1999/xhtml\">2015-09-13: ambulatory encounter</div>",
                    "status": "generated"
                },
                "type": [
                    {
                        "coding": [
                            {
                                "code": "270427003",
                                "display": "Patient-initiated encounter",
                                "system": "http://snomed.info"
                            }
                        ],
                        "text": "Patient-initiated ambulatory encounter"
                    }
                ],
                "meta": {
                    "tag": [
                        {
                            "system": "https://smarthealthit.org/tags",
                            "code": "smart-7-2017"
                        }
                    ]
                }
            },
            "fullUrl": "/Encounter/smart-975"
        },
        {
            "request": {
                "method": "PUT",
                "url": "Encounter/smart-976"
            },
            "resource": {
                "class": {
                    "code": "ambulatory"
                },
                "id": "smart-976",
                "period": {
                    "end": "2015-10-04",
                    "start": "2015-10-04"
                },
                "resourceType": "Encounter",
                "status": "finished",
                "subject": {
                    "reference": "Patient/smart-7777701"
                },
                "text": {
                    "div": "<div xmlns=\"http://www.w3.org/1999/xhtml\">2015-10-04: ambulatory encounter</div>",
                    "status": "generated"
                },
                "type": [
                    {
                        "coding": [
                            {
                                "code": "270427003",
                                "display": "Patient-initiated encounter",
                                "system": "http://snomed.info"
                            }
                        ],
                        "text": "Patient-initiated ambulatory encounter"
                    }
                ],
                "meta": {
                    "tag": [
                        {
                            "system": "https://smarthealthit.org/tags",
                            "code": "smart-7-2017"
                        }
                    ]
                }
            },
            "fullUrl": "/Encounter/smart-976"
        },
        {
            "request": {
                "method": "PUT",
                "url": "Encounter/smart-977"
            },
            "resource": {
                "class": {
                    "code": "ambulatory"
                },
                "id": "smart-977",
                "period": {
                    "end": "2015-11-03",
                    "start": "2015-11-03"
                },
                "resourceType": "Encounter",
                "status": "finished",
                "subject": {
                    "reference": "Patient/smart-7777701"
                },
                "text": {
                    "div": "<div xmlns=\"http://www.w3.org/1999/xhtml\">2015-11-03: ambulatory encounter</div>",
                    "status": "generated"
                },
                "type": [
                    {
                        "coding": [
                            {
                                "code": "270427003",
                                "display": "Patient-initiated encounter",
                                "system": "http://snomed.info"
                            }
                        ],
                        "text": "Patient-initiated ambulatory encounter"
                    }
                ],
                "meta": {
                    "tag": [
                        {
                            "system": "https://smarthealthit.org/tags",
                            "code": "smart-7-2017"
                        }
                    ]
                }
            },
            "fullUrl": "/Encounter/smart-977"
        },
        {
            "request": {
                "method": "PUT",
                "url": "Encounter/smart-978"
            },
            "resource": {
                "class": {
                    "code": "ambulatory"
                },
                "id": "smart-978",
                "period": {
                    "end": "2015-11-09",
                    "start": "2015-11-09"
                },
                "resourceType": "Encounter",
                "status": "finished",
                "subject": {
                    "reference": "Patient/smart-7777701"
                },
                "text": {
                    "div": "<div xmlns=\"http://www.w3.org/1999/xhtml\">2015-11-09: ambulatory encounter</div>",
                    "status": "generated"
                },
                "type": [
                    {
                        "coding": [
                            {
                                "code": "270427003",
                                "display": "Patient-initiated encounter",
                                "system": "http://snomed.info"
                            }
                        ],
                        "text": "Patient-initiated ambulatory encounter"
                    }
                ],
                "meta": {
                    "tag": [
                        {
                            "system": "https://smarthealthit.org/tags",
                            "code": "smart-7-2017"
                        }
                    ]
                }
            },
            "fullUrl": "/Encounter/smart-978"
        },
        {
            "request": {
                "method": "PUT",
                "url": "Encounter/smart-979"
            },
            "resource": {
                "class": {
                    "code": "ambulatory"
                },
                "id": "smart-979",
                "period": {
                    "end": "2015-12-28",
                    "start": "2015-12-28"
                },
                "resourceType": "Encounter",
                "status": "finished",
                "subject": {
                    "reference": "Patient/smart-7777701"
                },
                "text": {
                    "div": "<div xmlns=\"http://www.w3.org/1999/xhtml\">2015-12-28: ambulatory encounter</div>",
                    "status": "generated"
                },
                "type": [
                    {
                        "coding": [
                            {
                                "code": "270427003",
                                "display": "Patient-initiated encounter",
                                "system": "http://snomed.info"
                            }
                        ],
                        "text": "Patient-initiated ambulatory encounter"
                    }
                ],
                "meta": {
                    "tag": [
                        {
                            "system": "https://smarthealthit.org/tags",
                            "code": "smart-7-2017"
                        }
                    ]
                }
            },
            "fullUrl": "/Encounter/smart-979"
        },
        {
            "request": {
                "method": "PUT",
                "url": "Encounter/smart-980"
            },
            "resource": {
                "class": {
                    "code": "ambulatory"
                },
                "id": "smart-980",
                "period": {
                    "end": "2016-02-15",
                    "start": "2016-02-15"
                },
                "resourceType": "Encounter",
                "status": "finished",
                "subject": {
                    "reference": "Patient/smart-7777701"
                },
                "text": {
                    "div": "<div xmlns=\"http://www.w3.org/1999/xhtml\">2016-02-15: ambulatory encounter</div>",
                    "status": "generated"
                },
                "type": [
                    {
                        "coding": [
                            {
                                "code": "270427003",
                                "display": "Patient-initiated encounter",
                                "system": "http://snomed.info"
                            }
                        ],
                        "text": "Patient-initiated ambulatory encounter"
                    }
                ],
                "meta": {
                    "tag": [
                        {
                            "system": "https://smarthealthit.org/tags",
                            "code": "smart-7-2017"
                        }
                    ]
                }
            },
            "fullUrl": "/Encounter/smart-980"
        },
        {
            "request": {
                "method": "PUT",
                "url": "Encounter/smart-981"
            },
            "resource": {
                "class": {
                    "code": "ambulatory"
                },
                "id": "smart-981",
                "period": {
                    "end": "2016-03-01",
                    "start": "2016-03-01"
                },
                "resourceType": "Encounter",
                "status": "finished",
                "subject": {
                    "reference": "Patient/smart-7777701"
                },
                "text": {
                    "div": "<div xmlns=\"http://www.w3.org/1999/xhtml\">2016-03-01: ambulatory encounter</div>",
                    "status": "generated"
                },
                "type": [
                    {
                        "coding": [
                            {
                                "code": "270427003",
                                "display": "Patient-initiated encounter",
                                "system": "http://snomed.info"
                            }
                        ],
                        "text": "Patient-initiated ambulatory encounter"
                    }
                ],
                "meta": {
                    "tag": [
                        {
                            "system": "https://smarthealthit.org/tags",
                            "code": "smart-7-2017"
                        }
                    ]
                }
            },
            "fullUrl": "/Encounter/smart-981"
        },
        {
            "request": {
                "method": "PUT",
                "url": "Encounter/smart-982"
            },
            "resource": {
                "class": {
                    "code": "ambulatory"
                },
                "id": "smart-982",
                "period": {
                    "end": "2016-04-16",
                    "start": "2016-04-16"
                },
                "resourceType": "Encounter",
                "status": "finished",
                "subject": {
                    "reference": "Patient/smart-7777701"
                },
                "text": {
                    "div": "<div xmlns=\"http://www.w3.org/1999/xhtml\">2016-04-16: ambulatory encounter</div>",
                    "status": "generated"
                },
                "type": [
                    {
                        "coding": [
                            {
                                "code": "270427003",
                                "display": "Patient-initiated encounter",
                                "system": "http://snomed.info"
                            }
                        ],
                        "text": "Patient-initiated ambulatory encounter"
                    }
                ],
                "meta": {
                    "tag": [
                        {
                            "system": "https://smarthealthit.org/tags",
                            "code": "smart-7-2017"
                        }
                    ]
                }
            },
            "fullUrl": "/Encounter/smart-982"
        },
        {
            "request": {
                "method": "PUT",
                "url": "Encounter/smart-983"
            },
            "resource": {
                "class": {
                    "code": "ambulatory"
                },
                "id": "smart-983",
                "period": {
                    "end": "2016-07-22",
                    "start": "2016-07-22"
                },
                "resourceType": "Encounter",
                "status": "finished",
                "subject": {
                    "reference": "Patient/smart-7777701"
                },
                "text": {
                    "div": "<div xmlns=\"http://www.w3.org/1999/xhtml\">2016-07-22: ambulatory encounter</div>",
                    "status": "generated"
                },
                "type": [
                    {
                        "coding": [
                            {
                                "code": "270427003",
                                "display": "Patient-initiated encounter",
                                "system": "http://snomed.info"
                            }
                        ],
                        "text": "Patient-initiated ambulatory encounter"
                    }
                ],
                "meta": {
                    "tag": [
                        {
                            "system": "https://smarthealthit.org/tags",
                            "code": "smart-7-2017"
                        }
                    ]
                }
            },
            "fullUrl": "/Encounter/smart-983"
        },
        {
            "request": {
                "method": "PUT",
                "url": "Observation/smart-1503-weight"
            },
            "resource": {
                "category": [
                    {
                        "coding": [
                            {
                                "code": "vital-signs",
                                "display": "Vital Signs",
                                "system": "http://hl7.org/fhir/observation-category"
                            }
                        ],
                        "text": "Vital Signs"
                    }
                ],
                "code": {
                    "coding": [
                        {
                            "code": "3141-9",
                            "display": "weight",
                            "system": "http://loinc.org"
                        }
                    ],
                    "text": "weight"
                },
                "context": {
                    "reference": "Encounter/smart-967"
                },
                "effectiveDateTime": "2015-03-11",
                "id": "smart-1503-weight",
                "identifier": [
                    {
                        "system": "http://www.bmc.nl/zorgportal/identifiers/observations",
                        "use": "official",
                        "value": "smart-1503-weight"
                    }
                ],
                "performer": [
                    {
                        "reference": "Practitioner/smart-Practitioner-71081332"
                    }
                ],
                "resourceType": "Observation",
                "status": "unknown",
                "subject": {
                    "reference": "Patient/smart-7777701"
                },
                "text": {
                    "div": "<div xmlns=\"http://www.w3.org/1999/xhtml\">2015-03-11: weight = 0.977 kg</div>",
                    "status": "generated"
                },
                "valueQuantity": {
                    "code": "kg",
                    "system": "http://unitsofmeasure.org",
                    "unit": "kg",
                    "value": 0.977
                },
                "meta": {
                    "tag": [
                        {
                            "system": "https://smarthealthit.org/tags",
                            "code": "smart-7-2017"
                        }
                    ]
                }
            },
            "fullUrl": "/Observation/smart-1503-weight"
        },
        {
            "request": {
                "method": "PUT",
                "url": "Observation/smart-1504-height"
            },
            "resource": {
                "category": [
                    {
                        "coding": [
                            {
                                "code": "vital-signs",
                                "display": "Vital Signs",
                                "system": "http://hl7.org/fhir/observation-category"
                            }
                        ],
                        "text": "Vital Signs"
                    }
                ],
                "code": {
                    "coding": [
                        {
                            "code": "8302-2",
                            "display": "height",
                            "system": "http://loinc.org"
                        }
                    ],
                    "text": "height"
                },
                "context": {
                    "reference": "Encounter/smart-968"
                },
                "effectiveDateTime": "2015-05-17",
                "id": "smart-1504-height",
                "identifier": [
                    {
                        "system": "http://www.bmc.nl/zorgportal/identifiers/observations",
                        "use": "official",
                        "value": "smart-1504-height"
                    }
                ],
                "performer": [
                    {
                        "reference": "Practitioner/smart-Practitioner-71081332"
                    }
                ],
                "resourceType": "Observation",
                "status": "unknown",
                "subject": {
                    "reference": "Patient/smart-7777701"
                },
                "text": {
                    "div": "<div xmlns=\"http://www.w3.org/1999/xhtml\">2015-05-17: height = 45.0 cm</div>",
                    "status": "generated"
                },
                "valueQuantity": {
                    "code": "cm",
                    "system": "http://unitsofmeasure.org",
                    "unit": "cm",
                    "value": 45
                },
                "meta": {
                    "tag": [
                        {
                            "system": "https://smarthealthit.org/tags",
                            "code": "smart-7-2017"
                        }
                    ]
                }
            },
            "fullUrl": "/Observation/smart-1504-height"
        },
        {
            "request": {
                "method": "PUT",
                "url": "Observation/smart-1505-weight"
            },
            "resource": {
                "category": [
                    {
                        "coding": [
                            {
                                "code": "vital-signs",
                                "display": "Vital Signs",
                                "system": "http://hl7.org/fhir/observation-category"
                            }
                        ],
                        "text": "Vital Signs"
                    }
                ],
                "code": {
                    "coding": [
                        {
                            "code": "3141-9",
                            "display": "weight",
                            "system": "http://loinc.org"
                        }
                    ],
                    "text": "weight"
                },
                "context": {
                    "reference": "Encounter/smart-968"
                },
                "effectiveDateTime": "2015-05-17",
                "id": "smart-1505-weight",
                "identifier": [
                    {
                        "system": "http://www.bmc.nl/zorgportal/identifiers/observations",
                        "use": "official",
                        "value": "smart-1505-weight"
                    }
                ],
                "performer": [
                    {
                        "reference": "Practitioner/smart-Practitioner-71081332"
                    }
                ],
                "resourceType": "Observation",
                "status": "unknown",
                "subject": {
                    "reference": "Patient/smart-7777701"
                },
                "text": {
                    "div": "<div xmlns=\"http://www.w3.org/1999/xhtml\">2015-05-17: weight = 2.382 kg</div>",
                    "status": "generated"
                },
                "valueQuantity": {
                    "code": "kg",
                    "system": "http://unitsofmeasure.org",
                    "unit": "kg",
                    "value": 2.382
                },
                "meta": {
                    "tag": [
                        {
                            "system": "https://smarthealthit.org/tags",
                            "code": "smart-7-2017"
                        }
                    ]
                }
            },
            "fullUrl": "/Observation/smart-1505-weight"
        },
        {
            "request": {
                "method": "PUT",
                "url": "Observation/smart-1506-height"
            },
            "resource": {
                "category": [
                    {
                        "coding": [
                            {
                                "code": "vital-signs",
                                "display": "Vital Signs",
                                "system": "http://hl7.org/fhir/observation-category"
                            }
                        ],
                        "text": "Vital Signs"
                    }
                ],
                "code": {
                    "coding": [
                        {
                            "code": "8302-2",
                            "display": "height",
                            "system": "http://loinc.org"
                        }
                    ],
                    "text": "height"
                },
                "context": {
                    "reference": "Encounter/smart-969"
                },
                "effectiveDateTime": "2015-05-26",
                "id": "smart-1506-height",
                "identifier": [
                    {
                        "system": "http://www.bmc.nl/zorgportal/identifiers/observations",
                        "use": "official",
                        "value": "smart-1506-height"
                    }
                ],
                "performer": [
                    {
                        "reference": "Practitioner/smart-Practitioner-71081332"
                    }
                ],
                "resourceType": "Observation",
                "status": "unknown",
                "subject": {
                    "reference": "Patient/smart-7777701"
                },
                "text": {
                    "div": "<div xmlns=\"http://www.w3.org/1999/xhtml\">2015-05-26: height = 46.2 cm</div>",
                    "status": "generated"
                },
                "valueQuantity": {
                    "code": "cm",
                    "system": "http://unitsofmeasure.org",
                    "unit": "cm",
                    "value": 46.2
                },
                "meta": {
                    "tag": [
                        {
                            "system": "https://smarthealthit.org/tags",
                            "code": "smart-7-2017"
                        }
                    ]
                }
            },
            "fullUrl": "/Observation/smart-1506-height"
        },
        {
            "request": {
                "method": "PUT",
                "url": "Observation/smart-1507-weight"
            },
            "resource": {
                "category": [
                    {
                        "coding": [
                            {
                                "code": "vital-signs",
                                "display": "Vital Signs",
                                "system": "http://hl7.org/fhir/observation-category"
                            }
                        ],
                        "text": "Vital Signs"
                    }
                ],
                "code": {
                    "coding": [
                        {
                            "code": "3141-9",
                            "display": "weight",
                            "system": "http://loinc.org"
                        }
                    ],
                    "text": "weight"
                },
                "context": {
                    "reference": "Encounter/smart-969"
                },
                "effectiveDateTime": "2015-05-26",
                "id": "smart-1507-weight",
                "identifier": [
                    {
                        "system": "http://www.bmc.nl/zorgportal/identifiers/observations",
                        "use": "official",
                        "value": "smart-1507-weight"
                    }
                ],
                "performer": [
                    {
                        "reference": "Practitioner/smart-Practitioner-71081332"
                    }
                ],
                "resourceType": "Observation",
                "status": "unknown",
                "subject": {
                    "reference": "Patient/smart-7777701"
                },
                "text": {
                    "div": "<div xmlns=\"http://www.w3.org/1999/xhtml\">2015-05-26: weight = 2.636 kg</div>",
                    "status": "generated"
                },
                "valueQuantity": {
                    "code": "kg",
                    "system": "http://unitsofmeasure.org",
                    "unit": "kg",
                    "value": 2.636
                },
                "meta": {
                    "tag": [
                        {
                            "system": "https://smarthealthit.org/tags",
                            "code": "smart-7-2017"
                        }
                    ]
                }
            },
            "fullUrl": "/Observation/smart-1507-weight"
        },
        {
            "request": {
                "method": "PUT",
                "url": "Observation/smart-1508-height"
            },
            "resource": {
                "category": [
                    {
                        "coding": [
                            {
                                "code": "vital-signs",
                                "display": "Vital Signs",
                                "system": "http://hl7.org/fhir/observation-category"
                            }
                        ],
                        "text": "Vital Signs"
                    }
                ],
                "code": {
                    "coding": [
                        {
                            "code": "8302-2",
                            "display": "height",
                            "system": "http://loinc.org"
                        }
                    ],
                    "text": "height"
                },
                "context": {
                    "reference": "Encounter/smart-970"
                },
                "effectiveDateTime": "2015-06-10",
                "id": "smart-1508-height",
                "identifier": [
                    {
                        "system": "http://www.bmc.nl/zorgportal/identifiers/observations",
                        "use": "official",
                        "value": "smart-1508-height"
                    }
                ],
                "performer": [
                    {
                        "reference": "Practitioner/smart-Practitioner-71081332"
                    }
                ],
                "resourceType": "Observation",
                "status": "unknown",
                "subject": {
                    "reference": "Patient/smart-7777701"
                },
                "text": {
                    "div": "<div xmlns=\"http://www.w3.org/1999/xhtml\">2015-06-10: height = 48.5 cm</div>",
                    "status": "generated"
                },
                "valueQuantity": {
                    "code": "cm",
                    "system": "http://unitsofmeasure.org",
                    "unit": "cm",
                    "value": 48.5
                },
                "meta": {
                    "tag": [
                        {
                            "system": "https://smarthealthit.org/tags",
                            "code": "smart-7-2017"
                        }
                    ]
                }
            },
            "fullUrl": "/Observation/smart-1508-height"
        },
        {
            "request": {
                "method": "PUT",
                "url": "Observation/smart-1509-weight"
            },
            "resource": {
                "category": [
                    {
                        "coding": [
                            {
                                "code": "vital-signs",
                                "display": "Vital Signs",
                                "system": "http://hl7.org/fhir/observation-category"
                            }
                        ],
                        "text": "Vital Signs"
                    }
                ],
                "code": {
                    "coding": [
                        {
                            "code": "3141-9",
                            "display": "weight",
                            "system": "http://loinc.org"
                        }
                    ],
                    "text": "weight"
                },
                "context": {
                    "reference": "Encounter/smart-970"
                },
                "effectiveDateTime": "2015-06-10",
                "id": "smart-1509-weight",
                "identifier": [
                    {
                        "system": "http://www.bmc.nl/zorgportal/identifiers/observations",
                        "use": "official",
                        "value": "smart-1509-weight"
                    }
                ],
                "performer": [
                    {
                        "reference": "Practitioner/smart-Practitioner-71081332"
                    }
                ],
                "resourceType": "Observation",
                "status": "unknown",
                "subject": {
                    "reference": "Patient/smart-7777701"
                },
                "text": {
                    "div": "<div xmlns=\"http://www.w3.org/1999/xhtml\">2015-06-10: weight = 3.0 kg</div>",
                    "status": "generated"
                },
                "valueQuantity": {
                    "code": "kg",
                    "system": "http://unitsofmeasure.org",
                    "unit": "kg",
                    "value": 3
                },
                "meta": {
                    "tag": [
                        {
                            "system": "https://smarthealthit.org/tags",
                            "code": "smart-7-2017"
                        }
                    ]
                }
            },
            "fullUrl": "/Observation/smart-1509-weight"
        },
        {
            "request": {
                "method": "PUT",
                "url": "Observation/smart-1510-weight"
            },
            "resource": {
                "category": [
                    {
                        "coding": [
                            {
                                "code": "vital-signs",
                                "display": "Vital Signs",
                                "system": "http://hl7.org/fhir/observation-category"
                            }
                        ],
                        "text": "Vital Signs"
                    }
                ],
                "code": {
                    "coding": [
                        {
                            "code": "3141-9",
                            "display": "weight",
                            "system": "http://loinc.org"
                        }
                    ],
                    "text": "weight"
                },
                "context": {
                    "reference": "Encounter/smart-971"
                },
                "effectiveDateTime": "2015-07-05",
                "id": "smart-1510-weight",
                "identifier": [
                    {
                        "system": "http://www.bmc.nl/zorgportal/identifiers/observations",
                        "use": "official",
                        "value": "smart-1510-weight"
                    }
                ],
                "performer": [
                    {
                        "reference": "Practitioner/smart-Practitioner-71081332"
                    }
                ],
                "resourceType": "Observation",
                "status": "unknown",
                "subject": {
                    "reference": "Patient/smart-7777701"
                },
                "text": {
                    "div": "<div xmlns=\"http://www.w3.org/1999/xhtml\">2015-07-05: weight = 4.1 kg</div>",
                    "status": "generated"
                },
                "valueQuantity": {
                    "code": "kg",
                    "system": "http://unitsofmeasure.org",
                    "unit": "kg",
                    "value": 4.1
                },
                "meta": {
                    "tag": [
                        {
                            "system": "https://smarthealthit.org/tags",
                            "code": "smart-7-2017"
                        }
                    ]
                }
            },
            "fullUrl": "/Observation/smart-1510-weight"
        },
        {
            "request": {
                "method": "PUT",
                "url": "Observation/smart-1511-weight"
            },
            "resource": {
                "category": [
                    {
                        "coding": [
                            {
                                "code": "vital-signs",
                                "display": "Vital Signs",
                                "system": "http://hl7.org/fhir/observation-category"
                            }
                        ],
                        "text": "Vital Signs"
                    }
                ],
                "code": {
                    "coding": [
                        {
                            "code": "3141-9",
                            "display": "weight",
                            "system": "http://loinc.org"
                        }
                    ],
                    "text": "weight"
                },
                "context": {
                    "reference": "Encounter/smart-972"
                },
                "effectiveDateTime": "2015-07-29",
                "id": "smart-1511-weight",
                "identifier": [
                    {
                        "system": "http://www.bmc.nl/zorgportal/identifiers/observations",
                        "use": "official",
                        "value": "smart-1511-weight"
                    }
                ],
                "performer": [
                    {
                        "reference": "Practitioner/smart-Practitioner-71081332"
                    }
                ],
                "resourceType": "Observation",
                "status": "unknown",
                "subject": {
                    "reference": "Patient/smart-7777701"
                },
                "text": {
                    "div": "<div xmlns=\"http://www.w3.org/1999/xhtml\">2015-07-29: weight = 4.6 kg</div>",
                    "status": "generated"
                },
                "valueQuantity": {
                    "code": "kg",
                    "system": "http://unitsofmeasure.org",
                    "unit": "kg",
                    "value": 4.6
                },
                "meta": {
                    "tag": [
                        {
                            "system": "https://smarthealthit.org/tags",
                            "code": "smart-7-2017"
                        }
                    ]
                }
            },
            "fullUrl": "/Observation/smart-1511-weight"
        },
        {
            "request": {
                "method": "PUT",
                "url": "Observation/smart-1512-weight"
            },
            "resource": {
                "category": [
                    {
                        "coding": [
                            {
                                "code": "vital-signs",
                                "display": "Vital Signs",
                                "system": "http://hl7.org/fhir/observation-category"
                            }
                        ],
                        "text": "Vital Signs"
                    }
                ],
                "code": {
                    "coding": [
                        {
                            "code": "3141-9",
                            "display": "weight",
                            "system": "http://loinc.org"
                        }
                    ],
                    "text": "weight"
                },
                "context": {
                    "reference": "Encounter/smart-973"
                },
                "effectiveDateTime": "2015-08-04",
                "id": "smart-1512-weight",
                "identifier": [
                    {
                        "system": "http://www.bmc.nl/zorgportal/identifiers/observations",
                        "use": "official",
                        "value": "smart-1512-weight"
                    }
                ],
                "performer": [
                    {
                        "reference": "Practitioner/smart-Practitioner-71081332"
                    }
                ],
                "resourceType": "Observation",
                "status": "unknown",
                "subject": {
                    "reference": "Patient/smart-7777701"
                },
                "text": {
                    "div": "<div xmlns=\"http://www.w3.org/1999/xhtml\">2015-08-04: weight = 4.7 kg</div>",
                    "status": "generated"
                },
                "valueQuantity": {
                    "code": "kg",
                    "system": "http://unitsofmeasure.org",
                    "unit": "kg",
                    "value": 4.7
                },
                "meta": {
                    "tag": [
                        {
                            "system": "https://smarthealthit.org/tags",
                            "code": "smart-7-2017"
                        }
                    ]
                }
            },
            "fullUrl": "/Observation/smart-1512-weight"
        },
        {
            "request": {
                "method": "PUT",
                "url": "Observation/smart-1513-height"
            },
            "resource": {
                "category": [
                    {
                        "coding": [
                            {
                                "code": "vital-signs",
                                "display": "Vital Signs",
                                "system": "http://hl7.org/fhir/observation-category"
                            }
                        ],
                        "text": "Vital Signs"
                    }
                ],
                "code": {
                    "coding": [
                        {
                            "code": "8302-2",
                            "display": "height",
                            "system": "http://loinc.org"
                        }
                    ],
                    "text": "height"
                },
                "context": {
                    "reference": "Encounter/smart-974"
                },
                "effectiveDateTime": "2015-09-03",
                "id": "smart-1513-height",
                "identifier": [
                    {
                        "system": "http://www.bmc.nl/zorgportal/identifiers/observations",
                        "use": "official",
                        "value": "smart-1513-height"
                    }
                ],
                "performer": [
                    {
                        "reference": "Practitioner/smart-Practitioner-71081332"
                    }
                ],
                "resourceType": "Observation",
                "status": "unknown",
                "subject": {
                    "reference": "Patient/smart-7777701"
                },
                "text": {
                    "div": "<div xmlns=\"http://www.w3.org/1999/xhtml\">2015-09-03: height = 58.5 cm</div>",
                    "status": "generated"
                },
                "valueQuantity": {
                    "code": "cm",
                    "system": "http://unitsofmeasure.org",
                    "unit": "cm",
                    "value": 58.5
                },
                "meta": {
                    "tag": [
                        {
                            "system": "https://smarthealthit.org/tags",
                            "code": "smart-7-2017"
                        }
                    ]
                }
            },
            "fullUrl": "/Observation/smart-1513-height"
        },
        {
            "request": {
                "method": "PUT",
                "url": "Observation/smart-1514-weight"
            },
            "resource": {
                "category": [
                    {
                        "coding": [
                            {
                                "code": "vital-signs",
                                "display": "Vital Signs",
                                "system": "http://hl7.org/fhir/observation-category"
                            }
                        ],
                        "text": "Vital Signs"
                    }
                ],
                "code": {
                    "coding": [
                        {
                            "code": "3141-9",
                            "display": "weight",
                            "system": "http://loinc.org"
                        }
                    ],
                    "text": "weight"
                },
                "context": {
                    "reference": "Encounter/smart-974"
                },
                "effectiveDateTime": "2015-09-03",
                "id": "smart-1514-weight",
                "identifier": [
                    {
                        "system": "http://www.bmc.nl/zorgportal/identifiers/observations",
                        "use": "official",
                        "value": "smart-1514-weight"
                    }
                ],
                "performer": [
                    {
                        "reference": "Practitioner/smart-Practitioner-71081332"
                    }
                ],
                "resourceType": "Observation",
                "status": "unknown",
                "subject": {
                    "reference": "Patient/smart-7777701"
                },
                "text": {
                    "div": "<div xmlns=\"http://www.w3.org/1999/xhtml\">2015-09-03: weight = 5.4 kg</div>",
                    "status": "generated"
                },
                "valueQuantity": {
                    "code": "kg",
                    "system": "http://unitsofmeasure.org",
                    "unit": "kg",
                    "value": 5.4
                },
                "meta": {
                    "tag": [
                        {
                            "system": "https://smarthealthit.org/tags",
                            "code": "smart-7-2017"
                        }
                    ]
                }
            },
            "fullUrl": "/Observation/smart-1514-weight"
        },
        {
            "request": {
                "method": "PUT",
                "url": "Observation/smart-1515-height"
            },
            "resource": {
                "category": [
                    {
                        "coding": [
                            {
                                "code": "vital-signs",
                                "display": "Vital Signs",
                                "system": "http://hl7.org/fhir/observation-category"
                            }
                        ],
                        "text": "Vital Signs"
                    }
                ],
                "code": {
                    "coding": [
                        {
                            "code": "8302-2",
                            "display": "height",
                            "system": "http://loinc.org"
                        }
                    ],
                    "text": "height"
                },
                "context": {
                    "reference": "Encounter/smart-975"
                },
                "effectiveDateTime": "2015-09-13",
                "id": "smart-1515-height",
                "identifier": [
                    {
                        "system": "http://www.bmc.nl/zorgportal/identifiers/observations",
                        "use": "official",
                        "value": "smart-1515-height"
                    }
                ],
                "performer": [
                    {
                        "reference": "Practitioner/smart-Practitioner-71081332"
                    }
                ],
                "resourceType": "Observation",
                "status": "unknown",
                "subject": {
                    "reference": "Patient/smart-7777701"
                },
                "text": {
                    "div": "<div xmlns=\"http://www.w3.org/1999/xhtml\">2015-09-13: height = 58.7 cm</div>",
                    "status": "generated"
                },
                "valueQuantity": {
                    "code": "cm",
                    "system": "http://unitsofmeasure.org",
                    "unit": "cm",
                    "value": 58.7
                },
                "meta": {
                    "tag": [
                        {
                            "system": "https://smarthealthit.org/tags",
                            "code": "smart-7-2017"
                        }
                    ]
                }
            },
            "fullUrl": "/Observation/smart-1515-height"
        },
        {
            "request": {
                "method": "PUT",
                "url": "Observation/smart-1516-weight"
            },
            "resource": {
                "category": [
                    {
                        "coding": [
                            {
                                "code": "vital-signs",
                                "display": "Vital Signs",
                                "system": "http://hl7.org/fhir/observation-category"
                            }
                        ],
                        "text": "Vital Signs"
                    }
                ],
                "code": {
                    "coding": [
                        {
                            "code": "3141-9",
                            "display": "weight",
                            "system": "http://loinc.org"
                        }
                    ],
                    "text": "weight"
                },
                "context": {
                    "reference": "Encounter/smart-975"
                },
                "effectiveDateTime": "2015-09-13",
                "id": "smart-1516-weight",
                "identifier": [
                    {
                        "system": "http://www.bmc.nl/zorgportal/identifiers/observations",
                        "use": "official",
                        "value": "smart-1516-weight"
                    }
                ],
                "performer": [
                    {
                        "reference": "Practitioner/smart-Practitioner-71081332"
                    }
                ],
                "resourceType": "Observation",
                "status": "unknown",
                "subject": {
                    "reference": "Patient/smart-7777701"
                },
                "text": {
                    "div": "<div xmlns=\"http://www.w3.org/1999/xhtml\">2015-09-13: weight = 5.5 kg</div>",
                    "status": "generated"
                },
                "valueQuantity": {
                    "code": "kg",
                    "system": "http://unitsofmeasure.org",
                    "unit": "kg",
                    "value": 5.5
                },
                "meta": {
                    "tag": [
                        {
                            "system": "https://smarthealthit.org/tags",
                            "code": "smart-7-2017"
                        }
                    ]
                }
            },
            "fullUrl": "/Observation/smart-1516-weight"
        },
        {
            "request": {
                "method": "PUT",
                "url": "Observation/smart-1517-height"
            },
            "resource": {
                "category": [
                    {
                        "coding": [
                            {
                                "code": "vital-signs",
                                "display": "Vital Signs",
                                "system": "http://hl7.org/fhir/observation-category"
                            }
                        ],
                        "text": "Vital Signs"
                    }
                ],
                "code": {
                    "coding": [
                        {
                            "code": "8302-2",
                            "display": "height",
                            "system": "http://loinc.org"
                        }
                    ],
                    "text": "height"
                },
                "context": {
                    "reference": "Encounter/smart-976"
                },
                "effectiveDateTime": "2015-10-04",
                "id": "smart-1517-height",
                "identifier": [
                    {
                        "system": "http://www.bmc.nl/zorgportal/identifiers/observations",
                        "use": "official",
                        "value": "smart-1517-height"
                    }
                ],
                "performer": [
                    {
                        "reference": "Practitioner/smart-Practitioner-71081332"
                    }
                ],
                "resourceType": "Observation",
                "status": "unknown",
                "subject": {
                    "reference": "Patient/smart-7777701"
                },
                "text": {
                    "div": "<div xmlns=\"http://www.w3.org/1999/xhtml\">2015-10-04: height = 61.7 cm</div>",
                    "status": "generated"
                },
                "valueQuantity": {
                    "code": "cm",
                    "system": "http://unitsofmeasure.org",
                    "unit": "cm",
                    "value": 61.7
                },
                "meta": {
                    "tag": [
                        {
                            "system": "https://smarthealthit.org/tags",
                            "code": "smart-7-2017"
                        }
                    ]
                }
            },
            "fullUrl": "/Observation/smart-1517-height"
        },
        {
            "request": {
                "method": "PUT",
                "url": "Observation/smart-1518-weight"
            },
            "resource": {
                "category": [
                    {
                        "coding": [
                            {
                                "code": "vital-signs",
                                "display": "Vital Signs",
                                "system": "http://hl7.org/fhir/observation-category"
                            }
                        ],
                        "text": "Vital Signs"
                    }
                ],
                "code": {
                    "coding": [
                        {
                            "code": "3141-9",
                            "display": "weight",
                            "system": "http://loinc.org"
                        }
                    ],
                    "text": "weight"
                },
                "context": {
                    "reference": "Encounter/smart-976"
                },
                "effectiveDateTime": "2015-10-04",
                "id": "smart-1518-weight",
                "identifier": [
                    {
                        "system": "http://www.bmc.nl/zorgportal/identifiers/observations",
                        "use": "official",
                        "value": "smart-1518-weight"
                    }
                ],
                "performer": [
                    {
                        "reference": "Practitioner/smart-Practitioner-71081332"
                    }
                ],
                "resourceType": "Observation",
                "status": "unknown",
                "subject": {
                    "reference": "Patient/smart-7777701"
                },
                "text": {
                    "div": "<div xmlns=\"http://www.w3.org/1999/xhtml\">2015-10-04: weight = 5.9 kg</div>",
                    "status": "generated"
                },
                "valueQuantity": {
                    "code": "kg",
                    "system": "http://unitsofmeasure.org",
                    "unit": "kg",
                    "value": 5.9
                },
                "meta": {
                    "tag": [
                        {
                            "system": "https://smarthealthit.org/tags",
                            "code": "smart-7-2017"
                        }
                    ]
                }
            },
            "fullUrl": "/Observation/smart-1518-weight"
        },
        {
            "request": {
                "method": "PUT",
                "url": "Observation/smart-1519-height"
            },
            "resource": {
                "category": [
                    {
                        "coding": [
                            {
                                "code": "vital-signs",
                                "display": "Vital Signs",
                                "system": "http://hl7.org/fhir/observation-category"
                            }
                        ],
                        "text": "Vital Signs"
                    }
                ],
                "code": {
                    "coding": [
                        {
                            "code": "8302-2",
                            "display": "height",
                            "system": "http://loinc.org"
                        }
                    ],
                    "text": "height"
                },
                "context": {
                    "reference": "Encounter/smart-977"
                },
                "effectiveDateTime": "2015-11-03",
                "id": "smart-1519-height",
                "identifier": [
                    {
                        "system": "http://www.bmc.nl/zorgportal/identifiers/observations",
                        "use": "official",
                        "value": "smart-1519-height"
                    }
                ],
                "performer": [
                    {
                        "reference": "Practitioner/smart-Practitioner-71081332"
                    }
                ],
                "resourceType": "Observation",
                "status": "unknown",
                "subject": {
                    "reference": "Patient/smart-7777701"
                },
                "text": {
                    "div": "<div xmlns=\"http://www.w3.org/1999/xhtml\">2015-11-03: height = 62.8 cm</div>",
                    "status": "generated"
                },
                "valueQuantity": {
                    "code": "cm",
                    "system": "http://unitsofmeasure.org",
                    "unit": "cm",
                    "value": 62.8
                },
                "meta": {
                    "tag": [
                        {
                            "system": "https://smarthealthit.org/tags",
                            "code": "smart-7-2017"
                        }
                    ]
                }
            },
            "fullUrl": "/Observation/smart-1519-height"
        },
        {
            "request": {
                "method": "PUT",
                "url": "Observation/smart-1520-weight"
            },
            "resource": {
                "category": [
                    {
                        "coding": [
                            {
                                "code": "vital-signs",
                                "display": "Vital Signs",
                                "system": "http://hl7.org/fhir/observation-category"
                            }
                        ],
                        "text": "Vital Signs"
                    }
                ],
                "code": {
                    "coding": [
                        {
                            "code": "3141-9",
                            "display": "weight",
                            "system": "http://loinc.org"
                        }
                    ],
                    "text": "weight"
                },
                "context": {
                    "reference": "Encounter/smart-977"
                },
                "effectiveDateTime": "2015-11-03",
                "id": "smart-1520-weight",
                "identifier": [
                    {
                        "system": "http://www.bmc.nl/zorgportal/identifiers/observations",
                        "use": "official",
                        "value": "smart-1520-weight"
                    }
                ],
                "performer": [
                    {
                        "reference": "Practitioner/smart-Practitioner-71081332"
                    }
                ],
                "resourceType": "Observation",
                "status": "unknown",
                "subject": {
                    "reference": "Patient/smart-7777701"
                },
                "text": {
                    "div": "<div xmlns=\"http://www.w3.org/1999/xhtml\">2015-11-03: weight = 6.4 kg</div>",
                    "status": "generated"
                },
                "valueQuantity": {
                    "code": "kg",
                    "system": "http://unitsofmeasure.org",
                    "unit": "kg",
                    "value": 6.4
                },
                "meta": {
                    "tag": [
                        {
                            "system": "https://smarthealthit.org/tags",
                            "code": "smart-7-2017"
                        }
                    ]
                }
            },
            "fullUrl": "/Observation/smart-1520-weight"
        },
        {
            "request": {
                "method": "PUT",
                "url": "Observation/smart-1521-height"
            },
            "resource": {
                "category": [
                    {
                        "coding": [
                            {
                                "code": "vital-signs",
                                "display": "Vital Signs",
                                "system": "http://hl7.org/fhir/observation-category"
                            }
                        ],
                        "text": "Vital Signs"
                    }
                ],
                "code": {
                    "coding": [
                        {
                            "code": "8302-2",
                            "display": "height",
                            "system": "http://loinc.org"
                        }
                    ],
                    "text": "height"
                },
                "context": {
                    "reference": "Encounter/smart-978"
                },
                "effectiveDateTime": "2015-11-09",
                "id": "smart-1521-height",
                "identifier": [
                    {
                        "system": "http://www.bmc.nl/zorgportal/identifiers/observations",
                        "use": "official",
                        "value": "smart-1521-height"
                    }
                ],
                "performer": [
                    {
                        "reference": "Practitioner/smart-Practitioner-71081332"
                    }
                ],
                "resourceType": "Observation",
                "status": "unknown",
                "subject": {
                    "reference": "Patient/smart-7777701"
                },
                "text": {
                    "div": "<div xmlns=\"http://www.w3.org/1999/xhtml\">2015-11-09: height = 64.2 cm</div>",
                    "status": "generated"
                },
                "valueQuantity": {
                    "code": "cm",
                    "system": "http://unitsofmeasure.org",
                    "unit": "cm",
                    "value": 64.2
                },
                "meta": {
                    "tag": [
                        {
                            "system": "https://smarthealthit.org/tags",
                            "code": "smart-7-2017"
                        }
                    ]
                }
            },
            "fullUrl": "/Observation/smart-1521-height"
        },
        {
            "request": {
                "method": "PUT",
                "url": "Observation/smart-1522-weight"
            },
            "resource": {
                "category": [
                    {
                        "coding": [
                            {
                                "code": "vital-signs",
                                "display": "Vital Signs",
                                "system": "http://hl7.org/fhir/observation-category"
                            }
                        ],
                        "text": "Vital Signs"
                    }
                ],
                "code": {
                    "coding": [
                        {
                            "code": "3141-9",
                            "display": "weight",
                            "system": "http://loinc.org"
                        }
                    ],
                    "text": "weight"
                },
                "context": {
                    "reference": "Encounter/smart-978"
                },
                "effectiveDateTime": "2015-11-09",
                "id": "smart-1522-weight",
                "identifier": [
                    {
                        "system": "http://www.bmc.nl/zorgportal/identifiers/observations",
                        "use": "official",
                        "value": "smart-1522-weight"
                    }
                ],
                "performer": [
                    {
                        "reference": "Practitioner/smart-Practitioner-71081332"
                    }
                ],
                "resourceType": "Observation",
                "status": "unknown",
                "subject": {
                    "reference": "Patient/smart-7777701"
                },
                "text": {
                    "div": "<div xmlns=\"http://www.w3.org/1999/xhtml\">2015-11-09: weight = 6.5 kg</div>",
                    "status": "generated"
                },
                "valueQuantity": {
                    "code": "kg",
                    "system": "http://unitsofmeasure.org",
                    "unit": "kg",
                    "value": 6.5
                },
                "meta": {
                    "tag": [
                        {
                            "system": "https://smarthealthit.org/tags",
                            "code": "smart-7-2017"
                        }
                    ]
                }
            },
            "fullUrl": "/Observation/smart-1522-weight"
        },
        {
            "request": {
                "method": "PUT",
                "url": "Observation/smart-1523-height"
            },
            "resource": {
                "category": [
                    {
                        "coding": [
                            {
                                "code": "vital-signs",
                                "display": "Vital Signs",
                                "system": "http://hl7.org/fhir/observation-category"
                            }
                        ],
                        "text": "Vital Signs"
                    }
                ],
                "code": {
                    "coding": [
                        {
                            "code": "8302-2",
                            "display": "height",
                            "system": "http://loinc.org"
                        }
                    ],
                    "text": "height"
                },
                "context": {
                    "reference": "Encounter/smart-979"
                },
                "effectiveDateTime": "2015-12-28",
                "id": "smart-1523-height",
                "identifier": [
                    {
                        "system": "http://www.bmc.nl/zorgportal/identifiers/observations",
                        "use": "official",
                        "value": "smart-1523-height"
                    }
                ],
                "performer": [
                    {
                        "reference": "Practitioner/smart-Practitioner-71081332"
                    }
                ],
                "resourceType": "Observation",
                "status": "unknown",
                "subject": {
                    "reference": "Patient/smart-7777701"
                },
                "text": {
                    "div": "<div xmlns=\"http://www.w3.org/1999/xhtml\">2015-12-28: height = 66.0 cm</div>",
                    "status": "generated"
                },
                "valueQuantity": {
                    "code": "cm",
                    "system": "http://unitsofmeasure.org",
                    "unit": "cm",
                    "value": 66
                },
                "meta": {
                    "tag": [
                        {
                            "system": "https://smarthealthit.org/tags",
                            "code": "smart-7-2017"
                        }
                    ]
                }
            },
            "fullUrl": "/Observation/smart-1523-height"
        },
        {
            "request": {
                "method": "PUT",
                "url": "Observation/smart-1524-weight"
            },
            "resource": {
                "category": [
                    {
                        "coding": [
                            {
                                "code": "vital-signs",
                                "display": "Vital Signs",
                                "system": "http://hl7.org/fhir/observation-category"
                            }
                        ],
                        "text": "Vital Signs"
                    }
                ],
                "code": {
                    "coding": [
                        {
                            "code": "3141-9",
                            "display": "weight",
                            "system": "http://loinc.org"
                        }
                    ],
                    "text": "weight"
                },
                "context": {
                    "reference": "Encounter/smart-979"
                },
                "effectiveDateTime": "2015-12-28",
                "id": "smart-1524-weight",
                "identifier": [
                    {
                        "system": "http://www.bmc.nl/zorgportal/identifiers/observations",
                        "use": "official",
                        "value": "smart-1524-weight"
                    }
                ],
                "performer": [
                    {
                        "reference": "Practitioner/smart-Practitioner-71081332"
                    }
                ],
                "resourceType": "Observation",
                "status": "unknown",
                "subject": {
                    "reference": "Patient/smart-7777701"
                },
                "text": {
                    "div": "<div xmlns=\"http://www.w3.org/1999/xhtml\">2015-12-28: weight = 7.2 kg</div>",
                    "status": "generated"
                },
                "valueQuantity": {
                    "code": "kg",
                    "system": "http://unitsofmeasure.org",
                    "unit": "kg",
                    "value": 7.2
                },
                "meta": {
                    "tag": [
                        {
                            "system": "https://smarthealthit.org/tags",
                            "code": "smart-7-2017"
                        }
                    ]
                }
            },
            "fullUrl": "/Observation/smart-1524-weight"
        },
        {
            "request": {
                "method": "PUT",
                "url": "Observation/smart-1525-weight"
            },
            "resource": {
                "category": [
                    {
                        "coding": [
                            {
                                "code": "vital-signs",
                                "display": "Vital Signs",
                                "system": "http://hl7.org/fhir/observation-category"
                            }
                        ],
                        "text": "Vital Signs"
                    }
                ],
                "code": {
                    "coding": [
                        {
                            "code": "3141-9",
                            "display": "weight",
                            "system": "http://loinc.org"
                        }
                    ],
                    "text": "weight"
                },
                "context": {
                    "reference": "Encounter/smart-980"
                },
                "effectiveDateTime": "2016-02-15",
                "id": "smart-1525-weight",
                "identifier": [
                    {
                        "system": "http://www.bmc.nl/zorgportal/identifiers/observations",
                        "use": "official",
                        "value": "smart-1525-weight"
                    }
                ],
                "performer": [
                    {
                        "reference": "Practitioner/smart-Practitioner-71081332"
                    }
                ],
                "resourceType": "Observation",
                "status": "unknown",
                "subject": {
                    "reference": "Patient/smart-7777701"
                },
                "text": {
                    "div": "<div xmlns=\"http://www.w3.org/1999/xhtml\">2016-02-15: weight = 7.7 kg</div>",
                    "status": "generated"
                },
                "valueQuantity": {
                    "code": "kg",
                    "system": "http://unitsofmeasure.org",
                    "unit": "kg",
                    "value": 7.7
                },
                "meta": {
                    "tag": [
                        {
                            "system": "https://smarthealthit.org/tags",
                            "code": "smart-7-2017"
                        }
                    ]
                }
            },
            "fullUrl": "/Observation/smart-1525-weight"
        },
        {
            "request": {
                "method": "PUT",
                "url": "Observation/smart-1526-height"
            },
            "resource": {
                "category": [
                    {
                        "coding": [
                            {
                                "code": "vital-signs",
                                "display": "Vital Signs",
                                "system": "http://hl7.org/fhir/observation-category"
                            }
                        ],
                        "text": "Vital Signs"
                    }
                ],
                "code": {
                    "coding": [
                        {
                            "code": "8302-2",
                            "display": "height",
                            "system": "http://loinc.org"
                        }
                    ],
                    "text": "height"
                },
                "context": {
                    "reference": "Encounter/smart-981"
                },
                "effectiveDateTime": "2016-03-01",
                "id": "smart-1526-height",
                "identifier": [
                    {
                        "system": "http://www.bmc.nl/zorgportal/identifiers/observations",
                        "use": "official",
                        "value": "smart-1526-height"
                    }
                ],
                "performer": [
                    {
                        "reference": "Practitioner/smart-Practitioner-71081332"
                    }
                ],
                "resourceType": "Observation",
                "status": "unknown",
                "subject": {
                    "reference": "Patient/smart-7777701"
                },
                "text": {
                    "div": "<div xmlns=\"http://www.w3.org/1999/xhtml\">2016-03-01: height = 70.4 cm</div>",
                    "status": "generated"
                },
                "valueQuantity": {
                    "code": "cm",
                    "system": "http://unitsofmeasure.org",
                    "unit": "cm",
                    "value": 70.4
                },
                "meta": {
                    "tag": [
                        {
                            "system": "https://smarthealthit.org/tags",
                            "code": "smart-7-2017"
                        }
                    ]
                }
            },
            "fullUrl": "/Observation/smart-1526-height"
        },
        {
            "request": {
                "method": "PUT",
                "url": "Observation/smart-1527-weight"
            },
            "resource": {
                "category": [
                    {
                        "coding": [
                            {
                                "code": "vital-signs",
                                "display": "Vital Signs",
                                "system": "http://hl7.org/fhir/observation-category"
                            }
                        ],
                        "text": "Vital Signs"
                    }
                ],
                "code": {
                    "coding": [
                        {
                            "code": "3141-9",
                            "display": "weight",
                            "system": "http://loinc.org"
                        }
                    ],
                    "text": "weight"
                },
                "context": {
                    "reference": "Encounter/smart-981"
                },
                "effectiveDateTime": "2016-03-01",
                "id": "smart-1527-weight",
                "identifier": [
                    {
                        "system": "http://www.bmc.nl/zorgportal/identifiers/observations",
                        "use": "official",
                        "value": "smart-1527-weight"
                    }
                ],
                "performer": [
                    {
                        "reference": "Practitioner/smart-Practitioner-71081332"
                    }
                ],
                "resourceType": "Observation",
                "status": "unknown",
                "subject": {
                    "reference": "Patient/smart-7777701"
                },
                "text": {
                    "div": "<div xmlns=\"http://www.w3.org/1999/xhtml\">2016-03-01: weight = 7.7 kg</div>",
                    "status": "generated"
                },
                "valueQuantity": {
                    "code": "kg",
                    "system": "http://unitsofmeasure.org",
                    "unit": "kg",
                    "value": 7.7
                },
                "meta": {
                    "tag": [
                        {
                            "system": "https://smarthealthit.org/tags",
                            "code": "smart-7-2017"
                        }
                    ]
                }
            },
            "fullUrl": "/Observation/smart-1527-weight"
        },
        {
            "request": {
                "method": "PUT",
                "url": "Observation/smart-1528-height"
            },
            "resource": {
                "category": [
                    {
                        "coding": [
                            {
                                "code": "vital-signs",
                                "display": "Vital Signs",
                                "system": "http://hl7.org/fhir/observation-category"
                            }
                        ],
                        "text": "Vital Signs"
                    }
                ],
                "code": {
                    "coding": [
                        {
                            "code": "8302-2",
                            "display": "height",
                            "system": "http://loinc.org"
                        }
                    ],
                    "text": "height"
                },
                "context": {
                    "reference": "Encounter/smart-982"
                },
                "effectiveDateTime": "2016-04-16",
                "id": "smart-1528-height",
                "identifier": [
                    {
                        "system": "http://www.bmc.nl/zorgportal/identifiers/observations",
                        "use": "official",
                        "value": "smart-1528-height"
                    }
                ],
                "performer": [
                    {
                        "reference": "Practitioner/smart-Practitioner-71081332"
                    }
                ],
                "resourceType": "Observation",
                "status": "unknown",
                "subject": {
                    "reference": "Patient/smart-7777701"
                },
                "text": {
                    "div": "<div xmlns=\"http://www.w3.org/1999/xhtml\">2016-04-16: height = 71.2 cm</div>",
                    "status": "generated"
                },
                "valueQuantity": {
                    "code": "cm",
                    "system": "http://unitsofmeasure.org",
                    "unit": "cm",
                    "value": 71.2
                },
                "meta": {
                    "tag": [
                        {
                            "system": "https://smarthealthit.org/tags",
                            "code": "smart-7-2017"
                        }
                    ]
                }
            },
            "fullUrl": "/Observation/smart-1528-height"
        },
        {
            "request": {
                "method": "PUT",
                "url": "Observation/smart-1529-weight"
            },
            "resource": {
                "category": [
                    {
                        "coding": [
                            {
                                "code": "vital-signs",
                                "display": "Vital Signs",
                                "system": "http://hl7.org/fhir/observation-category"
                            }
                        ],
                        "text": "Vital Signs"
                    }
                ],
                "code": {
                    "coding": [
                        {
                            "code": "3141-9",
                            "display": "weight",
                            "system": "http://loinc.org"
                        }
                    ],
                    "text": "weight"
                },
                "context": {
                    "reference": "Encounter/smart-982"
                },
                "effectiveDateTime": "2016-04-16",
                "id": "smart-1529-weight",
                "identifier": [
                    {
                        "system": "http://www.bmc.nl/zorgportal/identifiers/observations",
                        "use": "official",
                        "value": "smart-1529-weight"
                    }
                ],
                "performer": [
                    {
                        "reference": "Practitioner/smart-Practitioner-71081332"
                    }
                ],
                "resourceType": "Observation",
                "status": "unknown",
                "subject": {
                    "reference": "Patient/smart-7777701"
                },
                "text": {
                    "div": "<div xmlns=\"http://www.w3.org/1999/xhtml\">2016-04-16: weight = 8.0 kg</div>",
                    "status": "generated"
                },
                "valueQuantity": {
                    "code": "kg",
                    "system": "http://unitsofmeasure.org",
                    "unit": "kg",
                    "value": 8
                },
                "meta": {
                    "tag": [
                        {
                            "system": "https://smarthealthit.org/tags",
                            "code": "smart-7-2017"
                        }
                    ]
                }
            },
            "fullUrl": "/Observation/smart-1529-weight"
        },
        {
            "request": {
                "method": "PUT",
                "url": "Observation/smart-1530-height"
            },
            "resource": {
                "category": [
                    {
                        "coding": [
                            {
                                "code": "vital-signs",
                                "display": "Vital Signs",
                                "system": "http://hl7.org/fhir/observation-category"
                            }
                        ],
                        "text": "Vital Signs"
                    }
                ],
                "code": {
                    "coding": [
                        {
                            "code": "8302-2",
                            "display": "height",
                            "system": "http://loinc.org"
                        }
                    ],
                    "text": "height"
                },
                "context": {
                    "reference": "Encounter/smart-983"
                },
                "effectiveDateTime": "2016-07-22",
                "id": "smart-1530-height",
                "identifier": [
                    {
                        "system": "http://www.bmc.nl/zorgportal/identifiers/observations",
                        "use": "official",
                        "value": "smart-1530-height"
                    }
                ],
                "performer": [
                    {
                        "reference": "Practitioner/smart-Practitioner-71081332"
                    }
                ],
                "resourceType": "Observation",
                "status": "unknown",
                "subject": {
                    "reference": "Patient/smart-7777701"
                },
                "text": {
                    "div": "<div xmlns=\"http://www.w3.org/1999/xhtml\">2016-07-22: height = 73.8 cm</div>",
                    "status": "generated"
                },
                "valueQuantity": {
                    "code": "cm",
                    "system": "http://unitsofmeasure.org",
                    "unit": "cm",
                    "value": 73.8
                },
                "meta": {
                    "tag": [
                        {
                            "system": "https://smarthealthit.org/tags",
                            "code": "smart-7-2017"
                        }
                    ]
                }
            },
            "fullUrl": "/Observation/smart-1530-height"
        },
        {
            "request": {
                "method": "PUT",
                "url": "Observation/smart-1531-weight"
            },
            "resource": {
                "category": [
                    {
                        "coding": [
                            {
                                "code": "vital-signs",
                                "display": "Vital Signs",
                                "system": "http://hl7.org/fhir/observation-category"
                            }
                        ],
                        "text": "Vital Signs"
                    }
                ],
                "code": {
                    "coding": [
                        {
                            "code": "3141-9",
                            "display": "weight",
                            "system": "http://loinc.org"
                        }
                    ],
                    "text": "weight"
                },
                "context": {
                    "reference": "Encounter/smart-983"
                },
                "effectiveDateTime": "2016-07-22",
                "id": "smart-1531-weight",
                "identifier": [
                    {
                        "system": "http://www.bmc.nl/zorgportal/identifiers/observations",
                        "use": "official",
                        "value": "smart-1531-weight"
                    }
                ],
                "performer": [
                    {
                        "reference": "Practitioner/smart-Practitioner-71081332"
                    }
                ],
                "resourceType": "Observation",
                "status": "unknown",
                "subject": {
                    "reference": "Patient/smart-7777701"
                },
                "text": {
                    "div": "<div xmlns=\"http://www.w3.org/1999/xhtml\">2016-07-22: weight = 8.6 kg</div>",
                    "status": "generated"
                },
                "valueQuantity": {
                    "code": "kg",
                    "system": "http://unitsofmeasure.org",
                    "unit": "kg",
                    "value": 8.6
                },
                "meta": {
                    "tag": [
                        {
                            "system": "https://smarthealthit.org/tags",
                            "code": "smart-7-2017"
                        }
                    ]
                }
            },
            "fullUrl": "/Observation/smart-1531-weight"
        },
        {
            "request": {
                "method": "PUT",
                "url": "FamilyMemberHistory/smart-FamilyMemberHistory-7"
            },
            "resource": {
                "extension": [
                    {
                        "url": "http://fhir-registry.smarthealthit.org/StructureDefinition/family-history#height",
                        "valueQuantity": {
                            "code": "cm",
                            "system": "http://unitsofmeasure.org",
                            "unit": "centimeters",
                            "value": 182
                        }
                    }
                ],
                "id": "smart-FamilyMemberHistory-7",
                "patient": {
                    "reference": "Patient/smart-7777701"
                },
                "relationship": {
                    "coding": [
                        {
                            "code": "FTH",
                            "display": "father",
                            "system": "http://hl7.org/fhir/v3/RoleCode"
                        }
                    ],
                    "text": "Father"
                },
                "resourceType": "FamilyMemberHistory",
                "status": "completed",
                "text": {
                    "div": "<div xmlns=\"http://www.w3.org/1999/xhtml\">Data on patient's Father</div>",
                    "status": "generated"
                },
                "meta": {
                    "tag": [
                        {
                            "system": "https://smarthealthit.org/tags",
                            "code": "smart-7-2017"
                        }
                    ]
                }
            },
            "fullUrl": "/FamilyMemberHistory/smart-FamilyMemberHistory-7"
        },
        {
            "request": {
                "method": "PUT",
                "url": "FamilyMemberHistory/smart-FamilyMemberHistory-8"
            },
            "resource": {
                "extension": [
                    {
                        "url": "http://fhir-registry.smarthealthit.org/StructureDefinition/family-history#height",
                        "valueQuantity": {
                            "code": "cm",
                            "system": "http://unitsofmeasure.org",
                            "unit": "centimeters",
                            "value": 165.5
                        }
                    }
                ],
                "id": "smart-FamilyMemberHistory-8",
                "patient": {
                    "reference": "Patient/smart-7777701"
                },
                "relationship": {
                    "coding": [
                        {
                            "code": "MTH",
                            "display": "mother",
                            "system": "http://hl7.org/fhir/v3/RoleCode"
                        }
                    ],
                    "text": "Mother"
                },
                "resourceType": "FamilyMemberHistory",
                "status": "completed",
                "text": {
                    "div": "<div xmlns=\"http://www.w3.org/1999/xhtml\">Data on patient's Mother</div>",
                    "status": "generated"
                },
                "meta": {
                    "tag": [
                        {
                            "system": "https://smarthealthit.org/tags",
                            "code": "smart-7-2017"
                        }
                    ]
                }
            },
            "fullUrl": "/FamilyMemberHistory/smart-FamilyMemberHistory-8"
        }
    ],
    "resourceType": "Bundle",
    "type": "transaction"
}