{
    "entry": [
        {
            "request": {
                "method": "PUT",
                "url": "MedicationDispense/smart-MedicationDispense-687"
            },
            "resource": {
                "authorizingPrescription": {
                    "reference": "MedicationRequest/smart-MedicationRequest-190"
                },
                "daysSupply": {
                    "code": "d",
                    "system": "http://unitsofmeasure.org",
                    "unit": "days",
                    "value": 30
                },
                "id": "smart-MedicationDispense-687",
                "medicationCodeableConcept": {
                    "coding": [
                        {
                            "code": "197885",
                            "display": "Hydrochlorothiazide 12.5 MG / Lisinopril 10 MG Oral Tablet",
                            "system": "http://www.nlm.nih.gov/research/umls/rxnorm"
                        }
                    ],
                    "text": "Hydrochlorothiazide 12.5 MG / Lisinopril 10 MG Oral Tablet"
                },
                "quantity": {
                    "code": "{tablets}",
                    "system": "http://unitsofmeasure.org",
                    "unit": "tablets",
                    "value": 30
                },
                "resourceType": "MedicationDispense",
                "status": "completed",
                "subject": {
                    "reference": "Patient/smart-1685497"
                },
                "text": {
                    "div": "<div xmlns=\"http://www.w3.org/1999/xhtml\">Dispensed 30 tablets = 30 day supply of Hydrochlorothiazide 12.5 MG / Lisinopril 10 MG Oral Tablet</div>",
                    "status": "generated"
                },
                "whenHandedOver": "2006-10-25",
                "meta": {
                    "tag": [
                        {
                            "system": "https://smarthealthit.org/tags",
                            "code": "smart-7-2017"
                        }
                    ]
                }
            },
            "fullUrl": "/MedicationDispense/smart-MedicationDispense-687"
        },
        {
            "request": {
                "method": "PUT",
                "url": "MedicationDispense/smart-MedicationDispense-679"
            },
            "resource": {
                "authorizingPrescription": {
                    "reference": "MedicationRequest/smart-MedicationRequest-190"
                },
                "daysSupply": {
                    "code": "d",
                    "system": "http://unitsofmeasure.org",
                    "unit": "days",
                    "value": 30
                },
                "id": "smart-MedicationDispense-679",
                "medicationCodeableConcept": {
                    "coding": [
                        {
                            "code": "197885",
                            "display": "Hydrochlorothiazide 12.5 MG / Lisinopril 10 MG Oral Tablet",
                            "system": "http://www.nlm.nih.gov/research/umls/rxnorm"
                        }
                    ],
                    "text": "Hydrochlorothiazide 12.5 MG / Lisinopril 10 MG Oral Tablet"
                },
                "quantity": {
                    "code": "{tablets}",
                    "system": "http://unitsofmeasure.org",
                    "unit": "tablets",
                    "value": 30
                },
                "resourceType": "MedicationDispense",
                "status": "completed",
                "subject": {
                    "reference": "Patient/smart-1685497"
                },
                "text": {
                    "div": "<div xmlns=\"http://www.w3.org/1999/xhtml\">Dispensed 30 tablets = 30 day supply of Hydrochlorothiazide 12.5 MG / Lisinopril 10 MG Oral Tablet</div>",
                    "status": "generated"
                },
                "whenHandedOver": "2006-02-25",
                "meta": {
                    "tag": [
                        {
                            "system": "https://smarthealthit.org/tags",
                            "code": "smart-7-2017"
                        }
                    ]
                }
            },
            "fullUrl": "/MedicationDispense/smart-MedicationDispense-679"
        },
        {
            "request": {
                "method": "PUT",
                "url": "MedicationDispense/smart-MedicationDispense-654"
            },
            "resource": {
                "authorizingPrescription": {
                    "reference": "MedicationRequest/smart-MedicationRequest-190"
                },
                "daysSupply": {
                    "code": "d",
                    "system": "http://unitsofmeasure.org",
                    "unit": "days",
                    "value": 30
                },
                "id": "smart-MedicationDispense-654",
                "medicationCodeableConcept": {
                    "coding": [
                        {
                            "code": "197885",
                            "display": "Hydrochlorothiazide 12.5 MG / Lisinopril 10 MG Oral Tablet",
                            "system": "http://www.nlm.nih.gov/research/umls/rxnorm"
                        }
                    ],
                    "text": "Hydrochlorothiazide 12.5 MG / Lisinopril 10 MG Oral Tablet"
                },
                "quantity": {
                    "code": "{tablets}",
                    "system": "http://unitsofmeasure.org",
                    "unit": "tablets",
                    "value": 30
                },
                "resourceType": "MedicationDispense",
                "status": "completed",
                "subject": {
                    "reference": "Patient/smart-1685497"
                },
                "text": {
                    "div": "<div xmlns=\"http://www.w3.org/1999/xhtml\">Dispensed 30 tablets = 30 day supply of Hydrochlorothiazide 12.5 MG / Lisinopril 10 MG Oral Tablet</div>",
                    "status": "generated"
                },
                "whenHandedOver": "2004-01-10",
                "meta": {
                    "tag": [
                        {
                            "system": "https://smarthealthit.org/tags",
                            "code": "smart-7-2017"
                        }
                    ]
                }
            },
            "fullUrl": "/MedicationDispense/smart-MedicationDispense-654"
        },
        {
            "request": {
                "method": "PUT",
                "url": "MedicationDispense/smart-MedicationDispense-675"
            },
            "resource": {
                "authorizingPrescription": {
                    "reference": "MedicationRequest/smart-MedicationRequest-190"
                },
                "daysSupply": {
                    "code": "d",
                    "system": "http://unitsofmeasure.org",
                    "unit": "days",
                    "value": 30
                },
                "id": "smart-MedicationDispense-675",
                "medicationCodeableConcept": {
                    "coding": [
                        {
                            "code": "197885",
                            "display": "Hydrochlorothiazide 12.5 MG / Lisinopril 10 MG Oral Tablet",
                            "system": "http://www.nlm.nih.gov/research/umls/rxnorm"
                        }
                    ],
                    "text": "Hydrochlorothiazide 12.5 MG / Lisinopril 10 MG Oral Tablet"
                },
                "quantity": {
                    "code": "{tablets}",
                    "system": "http://unitsofmeasure.org",
                    "unit": "tablets",
                    "value": 30
                },
                "resourceType": "MedicationDispense",
                "status": "completed",
                "subject": {
                    "reference": "Patient/smart-1685497"
                },
                "text": {
                    "div": "<div xmlns=\"http://www.w3.org/1999/xhtml\">Dispensed 30 tablets = 30 day supply of Hydrochlorothiazide 12.5 MG / Lisinopril 10 MG Oral Tablet</div>",
                    "status": "generated"
                },
                "whenHandedOver": "2005-10-23",
                "meta": {
                    "tag": [
                        {
                            "system": "https://smarthealthit.org/tags",
                            "code": "smart-7-2017"
                        }
                    ]
                }
            },
            "fullUrl": "/MedicationDispense/smart-MedicationDispense-675"
        },
        {
            "request": {
                "method": "PUT",
                "url": "MedicationDispense/smart-MedicationDispense-664"
            },
            "resource": {
                "authorizingPrescription": {
                    "reference": "MedicationRequest/smart-MedicationRequest-190"
                },
                "daysSupply": {
                    "code": "d",
                    "system": "http://unitsofmeasure.org",
                    "unit": "days",
                    "value": 30
                },
                "id": "smart-MedicationDispense-664",
                "medicationCodeableConcept": {
                    "coding": [
                        {
                            "code": "197885",
                            "display": "Hydrochlorothiazide 12.5 MG / Lisinopril 10 MG Oral Tablet",
                            "system": "http://www.nlm.nih.gov/research/umls/rxnorm"
                        }
                    ],
                    "text": "Hydrochlorothiazide 12.5 MG / Lisinopril 10 MG Oral Tablet"
                },
                "quantity": {
                    "code": "{tablets}",
                    "system": "http://unitsofmeasure.org",
                    "unit": "tablets",
                    "value": 30
                },
                "resourceType": "MedicationDispense",
                "status": "completed",
                "subject": {
                    "reference": "Patient/smart-1685497"
                },
                "text": {
                    "div": "<div xmlns=\"http://www.w3.org/1999/xhtml\">Dispensed 30 tablets = 30 day supply of Hydrochlorothiazide 12.5 MG / Lisinopril 10 MG Oral Tablet</div>",
                    "status": "generated"
                },
                "whenHandedOver": "2004-11-22",
                "meta": {
                    "tag": [
                        {
                            "system": "https://smarthealthit.org/tags",
                            "code": "smart-7-2017"
                        }
                    ]
                }
            },
            "fullUrl": "/MedicationDispense/smart-MedicationDispense-664"
        },
        {
            "request": {
                "method": "PUT",
                "url": "MedicationDispense/smart-MedicationDispense-657"
            },
            "resource": {
                "authorizingPrescription": {
                    "reference": "MedicationRequest/smart-MedicationRequest-190"
                },
                "daysSupply": {
                    "code": "d",
                    "system": "http://unitsofmeasure.org",
                    "unit": "days",
                    "value": 30
                },
                "id": "smart-MedicationDispense-657",
                "medicationCodeableConcept": {
                    "coding": [
                        {
                            "code": "197885",
                            "display": "Hydrochlorothiazide 12.5 MG / Lisinopril 10 MG Oral Tablet",
                            "system": "http://www.nlm.nih.gov/research/umls/rxnorm"
                        }
                    ],
                    "text": "Hydrochlorothiazide 12.5 MG / Lisinopril 10 MG Oral Tablet"
                },
                "quantity": {
                    "code": "{tablets}",
                    "system": "http://unitsofmeasure.org",
                    "unit": "tablets",
                    "value": 30
                },
                "resourceType": "MedicationDispense",
                "status": "completed",
                "subject": {
                    "reference": "Patient/smart-1685497"
                },
                "text": {
                    "div": "<div xmlns=\"http://www.w3.org/1999/xhtml\">Dispensed 30 tablets = 30 day supply of Hydrochlorothiazide 12.5 MG / Lisinopril 10 MG Oral Tablet</div>",
                    "status": "generated"
                },
                "whenHandedOver": "2004-04-13",
                "meta": {
                    "tag": [
                        {
                            "system": "https://smarthealthit.org/tags",
                            "code": "smart-7-2017"
                        }
                    ]
                }
            },
            "fullUrl": "/MedicationDispense/smart-MedicationDispense-657"
        },
        {
            "request": {
                "method": "PUT",
                "url": "MedicationDispense/smart-MedicationDispense-696"
            },
            "resource": {
                "authorizingPrescription": {
                    "reference": "MedicationRequest/smart-MedicationRequest-190"
                },
                "daysSupply": {
                    "code": "d",
                    "system": "http://unitsofmeasure.org",
                    "unit": "days",
                    "value": 30
                },
                "id": "smart-MedicationDispense-696",
                "medicationCodeableConcept": {
                    "coding": [
                        {
                            "code": "197885",
                            "display": "Hydrochlorothiazide 12.5 MG / Lisinopril 10 MG Oral Tablet",
                            "system": "http://www.nlm.nih.gov/research/umls/rxnorm"
                        }
                    ],
                    "text": "Hydrochlorothiazide 12.5 MG / Lisinopril 10 MG Oral Tablet"
                },
                "quantity": {
                    "code": "{tablets}",
                    "system": "http://unitsofmeasure.org",
                    "unit": "tablets",
                    "value": 30
                },
                "resourceType": "MedicationDispense",
                "status": "completed",
                "subject": {
                    "reference": "Patient/smart-1685497"
                },
                "text": {
                    "div": "<div xmlns=\"http://www.w3.org/1999/xhtml\">Dispensed 30 tablets = 30 day supply of Hydrochlorothiazide 12.5 MG / Lisinopril 10 MG Oral Tablet</div>",
                    "status": "generated"
                },
                "whenHandedOver": "2007-08-03",
                "meta": {
                    "tag": [
                        {
                            "system": "https://smarthealthit.org/tags",
                            "code": "smart-7-2017"
                        }
                    ]
                }
            },
            "fullUrl": "/MedicationDispense/smart-MedicationDispense-696"
        },
        {
            "request": {
                "method": "PUT",
                "url": "MedicationDispense/smart-MedicationDispense-697"
            },
            "resource": {
                "authorizingPrescription": {
                    "reference": "MedicationRequest/smart-MedicationRequest-190"
                },
                "daysSupply": {
                    "code": "d",
                    "system": "http://unitsofmeasure.org",
                    "unit": "days",
                    "value": 30
                },
                "id": "smart-MedicationDispense-697",
                "medicationCodeableConcept": {
                    "coding": [
                        {
                            "code": "197885",
                            "display": "Hydrochlorothiazide 12.5 MG / Lisinopril 10 MG Oral Tablet",
                            "system": "http://www.nlm.nih.gov/research/umls/rxnorm"
                        }
                    ],
                    "text": "Hydrochlorothiazide 12.5 MG / Lisinopril 10 MG Oral Tablet"
                },
                "quantity": {
                    "code": "{tablets}",
                    "system": "http://unitsofmeasure.org",
                    "unit": "tablets",
                    "value": 30
                },
                "resourceType": "MedicationDispense",
                "status": "completed",
                "subject": {
                    "reference": "Patient/smart-1685497"
                },
                "text": {
                    "div": "<div xmlns=\"http://www.w3.org/1999/xhtml\">Dispensed 30 tablets = 30 day supply of Hydrochlorothiazide 12.5 MG / Lisinopril 10 MG Oral Tablet</div>",
                    "status": "generated"
                },
                "whenHandedOver": "2007-09-02",
                "meta": {
                    "tag": [
                        {
                            "system": "https://smarthealthit.org/tags",
                            "code": "smart-7-2017"
                        }
                    ]
                }
            },
            "fullUrl": "/MedicationDispense/smart-MedicationDispense-697"
        },
        {
            "request": {
                "method": "PUT",
                "url": "MedicationDispense/smart-MedicationDispense-669"
            },
            "resource": {
                "authorizingPrescription": {
                    "reference": "MedicationRequest/smart-MedicationRequest-190"
                },
                "daysSupply": {
                    "code": "d",
                    "system": "http://unitsofmeasure.org",
                    "unit": "days",
                    "value": 30
                },
                "id": "smart-MedicationDispense-669",
                "medicationCodeableConcept": {
                    "coding": [
                        {
                            "code": "197885",
                            "display": "Hydrochlorothiazide 12.5 MG / Lisinopril 10 MG Oral Tablet",
                            "system": "http://www.nlm.nih.gov/research/umls/rxnorm"
                        }
                    ],
                    "text": "Hydrochlorothiazide 12.5 MG / Lisinopril 10 MG Oral Tablet"
                },
                "quantity": {
                    "code": "{tablets}",
                    "system": "http://unitsofmeasure.org",
                    "unit": "tablets",
                    "value": 30
                },
                "resourceType": "MedicationDispense",
                "status": "completed",
                "subject": {
                    "reference": "Patient/smart-1685497"
                },
                "text": {
                    "div": "<div xmlns=\"http://www.w3.org/1999/xhtml\">Dispensed 30 tablets = 30 day supply of Hydrochlorothiazide 12.5 MG / Lisinopril 10 MG Oral Tablet</div>",
                    "status": "generated"
                },
                "whenHandedOver": "2005-04-22",
                "meta": {
                    "tag": [
                        {
                            "system": "https://smarthealthit.org/tags",
                            "code": "smart-7-2017"
                        }
                    ]
                }
            },
            "fullUrl": "/MedicationDispense/smart-MedicationDispense-669"
        },
        {
            "request": {
                "method": "PUT",
                "url": "MedicationDispense/smart-MedicationDispense-676"
            },
            "resource": {
                "authorizingPrescription": {
                    "reference": "MedicationRequest/smart-MedicationRequest-190"
                },
                "daysSupply": {
                    "code": "d",
                    "system": "http://unitsofmeasure.org",
                    "unit": "days",
                    "value": 30
                },
                "id": "smart-MedicationDispense-676",
                "medicationCodeableConcept": {
                    "coding": [
                        {
                            "code": "197885",
                            "display": "Hydrochlorothiazide 12.5 MG / Lisinopril 10 MG Oral Tablet",
                            "system": "http://www.nlm.nih.gov/research/umls/rxnorm"
                        }
                    ],
                    "text": "Hydrochlorothiazide 12.5 MG / Lisinopril 10 MG Oral Tablet"
                },
                "quantity": {
                    "code": "{tablets}",
                    "system": "http://unitsofmeasure.org",
                    "unit": "tablets",
                    "value": 30
                },
                "resourceType": "MedicationDispense",
                "status": "completed",
                "subject": {
                    "reference": "Patient/smart-1685497"
                },
                "text": {
                    "div": "<div xmlns=\"http://www.w3.org/1999/xhtml\">Dispensed 30 tablets = 30 day supply of Hydrochlorothiazide 12.5 MG / Lisinopril 10 MG Oral Tablet</div>",
                    "status": "generated"
                },
                "whenHandedOver": "2005-11-21",
                "meta": {
                    "tag": [
                        {
                            "system": "https://smarthealthit.org/tags",
                            "code": "smart-7-2017"
                        }
                    ]
                }
            },
            "fullUrl": "/MedicationDispense/smart-MedicationDispense-676"
        },
        {
            "request": {
                "method": "PUT",
                "url": "MedicationDispense/smart-MedicationDispense-662"
            },
            "resource": {
                "authorizingPrescription": {
                    "reference": "MedicationRequest/smart-MedicationRequest-190"
                },
                "daysSupply": {
                    "code": "d",
                    "system": "http://unitsofmeasure.org",
                    "unit": "days",
                    "value": 30
                },
                "id": "smart-MedicationDispense-662",
                "medicationCodeableConcept": {
                    "coding": [
                        {
                            "code": "197885",
                            "display": "Hydrochlorothiazide 12.5 MG / Lisinopril 10 MG Oral Tablet",
                            "system": "http://www.nlm.nih.gov/research/umls/rxnorm"
                        }
                    ],
                    "text": "Hydrochlorothiazide 12.5 MG / Lisinopril 10 MG Oral Tablet"
                },
                "quantity": {
                    "code": "{tablets}",
                    "system": "http://unitsofmeasure.org",
                    "unit": "tablets",
                    "value": 30
                },
                "resourceType": "MedicationDispense",
                "status": "completed",
                "subject": {
                    "reference": "Patient/smart-1685497"
                },
                "text": {
                    "div": "<div xmlns=\"http://www.w3.org/1999/xhtml\">Dispensed 30 tablets = 30 day supply of Hydrochlorothiazide 12.5 MG / Lisinopril 10 MG Oral Tablet</div>",
                    "status": "generated"
                },
                "whenHandedOver": "2004-09-17",
                "meta": {
                    "tag": [
                        {
                            "system": "https://smarthealthit.org/tags",
                            "code": "smart-7-2017"
                        }
                    ]
                }
            },
            "fullUrl": "/MedicationDispense/smart-MedicationDispense-662"
        },
        {
            "request": {
                "method": "PUT",
                "url": "MedicationDispense/smart-MedicationDispense-698"
            },
            "resource": {
                "authorizingPrescription": {
                    "reference": "MedicationRequest/smart-MedicationRequest-190"
                },
                "daysSupply": {
                    "code": "d",
                    "system": "http://unitsofmeasure.org",
                    "unit": "days",
                    "value": 30
                },
                "id": "smart-MedicationDispense-698",
                "medicationCodeableConcept": {
                    "coding": [
                        {
                            "code": "197885",
                            "display": "Hydrochlorothiazide 12.5 MG / Lisinopril 10 MG Oral Tablet",
                            "system": "http://www.nlm.nih.gov/research/umls/rxnorm"
                        }
                    ],
                    "text": "Hydrochlorothiazide 12.5 MG / Lisinopril 10 MG Oral Tablet"
                },
                "quantity": {
                    "code": "{tablets}",
                    "system": "http://unitsofmeasure.org",
                    "unit": "tablets",
                    "value": 30
                },
                "resourceType": "MedicationDispense",
                "status": "completed",
                "subject": {
                    "reference": "Patient/smart-1685497"
                },
                "text": {
                    "div": "<div xmlns=\"http://www.w3.org/1999/xhtml\">Dispensed 30 tablets = 30 day supply of Hydrochlorothiazide 12.5 MG / Lisinopril 10 MG Oral Tablet</div>",
                    "status": "generated"
                },
                "whenHandedOver": "2007-10-06",
                "meta": {
                    "tag": [
                        {
                            "system": "https://smarthealthit.org/tags",
                            "code": "smart-7-2017"
                        }
                    ]
                }
            },
            "fullUrl": "/MedicationDispense/smart-MedicationDispense-698"
        },
        {
            "request": {
                "method": "PUT",
                "url": "MedicationDispense/smart-MedicationDispense-684"
            },
            "resource": {
                "authorizingPrescription": {
                    "reference": "MedicationRequest/smart-MedicationRequest-190"
                },
                "daysSupply": {
                    "code": "d",
                    "system": "http://unitsofmeasure.org",
                    "unit": "days",
                    "value": 30
                },
                "id": "smart-MedicationDispense-684",
                "medicationCodeableConcept": {
                    "coding": [
                        {
                            "code": "197885",
                            "display": "Hydrochlorothiazide 12.5 MG / Lisinopril 10 MG Oral Tablet",
                            "system": "http://www.nlm.nih.gov/research/umls/rxnorm"
                        }
                    ],
                    "text": "Hydrochlorothiazide 12.5 MG / Lisinopril 10 MG Oral Tablet"
                },
                "quantity": {
                    "code": "{tablets}",
                    "system": "http://unitsofmeasure.org",
                    "unit": "tablets",
                    "value": 30
                },
                "resourceType": "MedicationDispense",
                "status": "completed",
                "subject": {
                    "reference": "Patient/smart-1685497"
                },
                "text": {
                    "div": "<div xmlns=\"http://www.w3.org/1999/xhtml\">Dispensed 30 tablets = 30 day supply of Hydrochlorothiazide 12.5 MG / Lisinopril 10 MG Oral Tablet</div>",
                    "status": "generated"
                },
                "whenHandedOver": "2006-07-22",
                "meta": {
                    "tag": [
                        {
                            "system": "https://smarthealthit.org/tags",
                            "code": "smart-7-2017"
                        }
                    ]
                }
            },
            "fullUrl": "/MedicationDispense/smart-MedicationDispense-684"
        },
        {
            "request": {
                "method": "PUT",
                "url": "MedicationDispense/smart-MedicationDispense-682"
            },
            "resource": {
                "authorizingPrescription": {
                    "reference": "MedicationRequest/smart-MedicationRequest-190"
                },
                "daysSupply": {
                    "code": "d",
                    "system": "http://unitsofmeasure.org",
                    "unit": "days",
                    "value": 30
                },
                "id": "smart-MedicationDispense-682",
                "medicationCodeableConcept": {
                    "coding": [
                        {
                            "code": "197885",
                            "display": "Hydrochlorothiazide 12.5 MG / Lisinopril 10 MG Oral Tablet",
                            "system": "http://www.nlm.nih.gov/research/umls/rxnorm"
                        }
                    ],
                    "text": "Hydrochlorothiazide 12.5 MG / Lisinopril 10 MG Oral Tablet"
                },
                "quantity": {
                    "code": "{tablets}",
                    "system": "http://unitsofmeasure.org",
                    "unit": "tablets",
                    "value": 30
                },
                "resourceType": "MedicationDispense",
                "status": "completed",
                "subject": {
                    "reference": "Patient/smart-1685497"
                },
                "text": {
                    "div": "<div xmlns=\"http://www.w3.org/1999/xhtml\">Dispensed 30 tablets = 30 day supply of Hydrochlorothiazide 12.5 MG / Lisinopril 10 MG Oral Tablet</div>",
                    "status": "generated"
                },
                "whenHandedOver": "2006-05-27",
                "meta": {
                    "tag": [
                        {
                            "system": "https://smarthealthit.org/tags",
                            "code": "smart-7-2017"
                        }
                    ]
                }
            },
            "fullUrl": "/MedicationDispense/smart-MedicationDispense-682"
        },
        {
            "request": {
                "method": "PUT",
                "url": "MedicationDispense/smart-MedicationDispense-672"
            },
            "resource": {
                "authorizingPrescription": {
                    "reference": "MedicationRequest/smart-MedicationRequest-190"
                },
                "daysSupply": {
                    "code": "d",
                    "system": "http://unitsofmeasure.org",
                    "unit": "days",
                    "value": 30
                },
                "id": "smart-MedicationDispense-672",
                "medicationCodeableConcept": {
                    "coding": [
                        {
                            "code": "197885",
                            "display": "Hydrochlorothiazide 12.5 MG / Lisinopril 10 MG Oral Tablet",
                            "system": "http://www.nlm.nih.gov/research/umls/rxnorm"
                        }
                    ],
                    "text": "Hydrochlorothiazide 12.5 MG / Lisinopril 10 MG Oral Tablet"
                },
                "quantity": {
                    "code": "{tablets}",
                    "system": "http://unitsofmeasure.org",
                    "unit": "tablets",
                    "value": 30
                },
                "resourceType": "MedicationDispense",
                "status": "completed",
                "subject": {
                    "reference": "Patient/smart-1685497"
                },
                "text": {
                    "div": "<div xmlns=\"http://www.w3.org/1999/xhtml\">Dispensed 30 tablets = 30 day supply of Hydrochlorothiazide 12.5 MG / Lisinopril 10 MG Oral Tablet</div>",
                    "status": "generated"
                },
                "whenHandedOver": "2005-07-23",
                "meta": {
                    "tag": [
                        {
                            "system": "https://smarthealthit.org/tags",
                            "code": "smart-7-2017"
                        }
                    ]
                }
            },
            "fullUrl": "/MedicationDispense/smart-MedicationDispense-672"
        },
        {
            "request": {
                "method": "PUT",
                "url": "MedicationDispense/smart-MedicationDispense-673"
            },
            "resource": {
                "authorizingPrescription": {
                    "reference": "MedicationRequest/smart-MedicationRequest-190"
                },
                "daysSupply": {
                    "code": "d",
                    "system": "http://unitsofmeasure.org",
                    "unit": "days",
                    "value": 30
                },
                "id": "smart-MedicationDispense-673",
                "medicationCodeableConcept": {
                    "coding": [
                        {
                            "code": "197885",
                            "display": "Hydrochlorothiazide 12.5 MG / Lisinopril 10 MG Oral Tablet",
                            "system": "http://www.nlm.nih.gov/research/umls/rxnorm"
                        }
                    ],
                    "text": "Hydrochlorothiazide 12.5 MG / Lisinopril 10 MG Oral Tablet"
                },
                "quantity": {
                    "code": "{tablets}",
                    "system": "http://unitsofmeasure.org",
                    "unit": "tablets",
                    "value": 30
                },
                "resourceType": "MedicationDispense",
                "status": "completed",
                "subject": {
                    "reference": "Patient/smart-1685497"
                },
                "text": {
                    "div": "<div xmlns=\"http://www.w3.org/1999/xhtml\">Dispensed 30 tablets = 30 day supply of Hydrochlorothiazide 12.5 MG / Lisinopril 10 MG Oral Tablet</div>",
                    "status": "generated"
                },
                "whenHandedOver": "2005-08-21",
                "meta": {
                    "tag": [
                        {
                            "system": "https://smarthealthit.org/tags",
                            "code": "smart-7-2017"
                        }
                    ]
                }
            },
            "fullUrl": "/MedicationDispense/smart-MedicationDispense-673"
        },
        {
            "request": {
                "method": "PUT",
                "url": "MedicationDispense/smart-MedicationDispense-674"
            },
            "resource": {
                "authorizingPrescription": {
                    "reference": "MedicationRequest/smart-MedicationRequest-190"
                },
                "daysSupply": {
                    "code": "d",
                    "system": "http://unitsofmeasure.org",
                    "unit": "days",
                    "value": 30
                },
                "id": "smart-MedicationDispense-674",
                "medicationCodeableConcept": {
                    "coding": [
                        {
                            "code": "197885",
                            "display": "Hydrochlorothiazide 12.5 MG / Lisinopril 10 MG Oral Tablet",
                            "system": "http://www.nlm.nih.gov/research/umls/rxnorm"
                        }
                    ],
                    "text": "Hydrochlorothiazide 12.5 MG / Lisinopril 10 MG Oral Tablet"
                },
                "quantity": {
                    "code": "{tablets}",
                    "system": "http://unitsofmeasure.org",
                    "unit": "tablets",
                    "value": 30
                },
                "resourceType": "MedicationDispense",
                "status": "completed",
                "subject": {
                    "reference": "Patient/smart-1685497"
                },
                "text": {
                    "div": "<div xmlns=\"http://www.w3.org/1999/xhtml\">Dispensed 30 tablets = 30 day supply of Hydrochlorothiazide 12.5 MG / Lisinopril 10 MG Oral Tablet</div>",
                    "status": "generated"
                },
                "whenHandedOver": "2005-09-21",
                "meta": {
                    "tag": [
                        {
                            "system": "https://smarthealthit.org/tags",
                            "code": "smart-7-2017"
                        }
                    ]
                }
            },
            "fullUrl": "/MedicationDispense/smart-MedicationDispense-674"
        },
        {
            "request": {
                "method": "PUT",
                "url": "MedicationDispense/smart-MedicationDispense-689"
            },
            "resource": {
                "authorizingPrescription": {
                    "reference": "MedicationRequest/smart-MedicationRequest-190"
                },
                "daysSupply": {
                    "code": "d",
                    "system": "http://unitsofmeasure.org",
                    "unit": "days",
                    "value": 30
                },
                "id": "smart-MedicationDispense-689",
                "medicationCodeableConcept": {
                    "coding": [
                        {
                            "code": "197885",
                            "display": "Hydrochlorothiazide 12.5 MG / Lisinopril 10 MG Oral Tablet",
                            "system": "http://www.nlm.nih.gov/research/umls/rxnorm"
                        }
                    ],
                    "text": "Hydrochlorothiazide 12.5 MG / Lisinopril 10 MG Oral Tablet"
                },
                "quantity": {
                    "code": "{tablets}",
                    "system": "http://unitsofmeasure.org",
                    "unit": "tablets",
                    "value": 30
                },
                "resourceType": "MedicationDispense",
                "status": "completed",
                "subject": {
                    "reference": "Patient/smart-1685497"
                },
                "text": {
                    "div": "<div xmlns=\"http://www.w3.org/1999/xhtml\">Dispensed 30 tablets = 30 day supply of Hydrochlorothiazide 12.5 MG / Lisinopril 10 MG Oral Tablet</div>",
                    "status": "generated"
                },
                "whenHandedOver": "2006-12-28",
                "meta": {
                    "tag": [
                        {
                            "system": "https://smarthealthit.org/tags",
                            "code": "smart-7-2017"
                        }
                    ]
                }
            },
            "fullUrl": "/MedicationDispense/smart-MedicationDispense-689"
        },
        {
            "request": {
                "method": "PUT",
                "url": "MedicationDispense/smart-MedicationDispense-665"
            },
            "resource": {
                "authorizingPrescription": {
                    "reference": "MedicationRequest/smart-MedicationRequest-190"
                },
                "daysSupply": {
                    "code": "d",
                    "system": "http://unitsofmeasure.org",
                    "unit": "days",
                    "value": 30
                },
                "id": "smart-MedicationDispense-665",
                "medicationCodeableConcept": {
                    "coding": [
                        {
                            "code": "197885",
                            "display": "Hydrochlorothiazide 12.5 MG / Lisinopril 10 MG Oral Tablet",
                            "system": "http://www.nlm.nih.gov/research/umls/rxnorm"
                        }
                    ],
                    "text": "Hydrochlorothiazide 12.5 MG / Lisinopril 10 MG Oral Tablet"
                },
                "quantity": {
                    "code": "{tablets}",
                    "system": "http://unitsofmeasure.org",
                    "unit": "tablets",
                    "value": 30
                },
                "resourceType": "MedicationDispense",
                "status": "completed",
                "subject": {
                    "reference": "Patient/smart-1685497"
                },
                "text": {
                    "div": "<div xmlns=\"http://www.w3.org/1999/xhtml\">Dispensed 30 tablets = 30 day supply of Hydrochlorothiazide 12.5 MG / Lisinopril 10 MG Oral Tablet</div>",
                    "status": "generated"
                },
                "whenHandedOver": "2004-12-25",
                "meta": {
                    "tag": [
                        {
                            "system": "https://smarthealthit.org/tags",
                            "code": "smart-7-2017"
                        }
                    ]
                }
            },
            "fullUrl": "/MedicationDispense/smart-MedicationDispense-665"
        },
        {
            "request": {
                "method": "PUT",
                "url": "MedicationDispense/smart-MedicationDispense-655"
            },
            "resource": {
                "authorizingPrescription": {
                    "reference": "MedicationRequest/smart-MedicationRequest-190"
                },
                "daysSupply": {
                    "code": "d",
                    "system": "http://unitsofmeasure.org",
                    "unit": "days",
                    "value": 30
                },
                "id": "smart-MedicationDispense-655",
                "medicationCodeableConcept": {
                    "coding": [
                        {
                            "code": "197885",
                            "display": "Hydrochlorothiazide 12.5 MG / Lisinopril 10 MG Oral Tablet",
                            "system": "http://www.nlm.nih.gov/research/umls/rxnorm"
                        }
                    ],
                    "text": "Hydrochlorothiazide 12.5 MG / Lisinopril 10 MG Oral Tablet"
                },
                "quantity": {
                    "code": "{tablets}",
                    "system": "http://unitsofmeasure.org",
                    "unit": "tablets",
                    "value": 30
                },
                "resourceType": "MedicationDispense",
                "status": "completed",
                "subject": {
                    "reference": "Patient/smart-1685497"
                },
                "text": {
                    "div": "<div xmlns=\"http://www.w3.org/1999/xhtml\">Dispensed 30 tablets = 30 day supply of Hydrochlorothiazide 12.5 MG / Lisinopril 10 MG Oral Tablet</div>",
                    "status": "generated"
                },
                "whenHandedOver": "2004-02-16",
                "meta": {
                    "tag": [
                        {
                            "system": "https://smarthealthit.org/tags",
                            "code": "smart-7-2017"
                        }
                    ]
                }
            },
            "fullUrl": "/MedicationDispense/smart-MedicationDispense-655"
        },
        {
            "request": {
                "method": "PUT",
                "url": "MedicationDispense/smart-MedicationDispense-683"
            },
            "resource": {
                "authorizingPrescription": {
                    "reference": "MedicationRequest/smart-MedicationRequest-190"
                },
                "daysSupply": {
                    "code": "d",
                    "system": "http://unitsofmeasure.org",
                    "unit": "days",
                    "value": 30
                },
                "id": "smart-MedicationDispense-683",
                "medicationCodeableConcept": {
                    "coding": [
                        {
                            "code": "197885",
                            "display": "Hydrochlorothiazide 12.5 MG / Lisinopril 10 MG Oral Tablet",
                            "system": "http://www.nlm.nih.gov/research/umls/rxnorm"
                        }
                    ],
                    "text": "Hydrochlorothiazide 12.5 MG / Lisinopril 10 MG Oral Tablet"
                },
                "quantity": {
                    "code": "{tablets}",
                    "system": "http://unitsofmeasure.org",
                    "unit": "tablets",
                    "value": 30
                },
                "resourceType": "MedicationDispense",
                "status": "completed",
                "subject": {
                    "reference": "Patient/smart-1685497"
                },
                "text": {
                    "div": "<div xmlns=\"http://www.w3.org/1999/xhtml\">Dispensed 30 tablets = 30 day supply of Hydrochlorothiazide 12.5 MG / Lisinopril 10 MG Oral Tablet</div>",
                    "status": "generated"
                },
                "whenHandedOver": "2006-06-22",
                "meta": {
                    "tag": [
                        {
                            "system": "https://smarthealthit.org/tags",
                            "code": "smart-7-2017"
                        }
                    ]
                }
            },
            "fullUrl": "/MedicationDispense/smart-MedicationDispense-683"
        },
        {
            "request": {
                "method": "PUT",
                "url": "MedicationDispense/smart-MedicationDispense-658"
            },
            "resource": {
                "authorizingPrescription": {
                    "reference": "MedicationRequest/smart-MedicationRequest-190"
                },
                "daysSupply": {
                    "code": "d",
                    "system": "http://unitsofmeasure.org",
                    "unit": "days",
                    "value": 30
                },
                "id": "smart-MedicationDispense-658",
                "medicationCodeableConcept": {
                    "coding": [
                        {
                            "code": "197885",
                            "display": "Hydrochlorothiazide 12.5 MG / Lisinopril 10 MG Oral Tablet",
                            "system": "http://www.nlm.nih.gov/research/umls/rxnorm"
                        }
                    ],
                    "text": "Hydrochlorothiazide 12.5 MG / Lisinopril 10 MG Oral Tablet"
                },
                "quantity": {
                    "code": "{tablets}",
                    "system": "http://unitsofmeasure.org",
                    "unit": "tablets",
                    "value": 30
                },
                "resourceType": "MedicationDispense",
                "status": "completed",
                "subject": {
                    "reference": "Patient/smart-1685497"
                },
                "text": {
                    "div": "<div xmlns=\"http://www.w3.org/1999/xhtml\">Dispensed 30 tablets = 30 day supply of Hydrochlorothiazide 12.5 MG / Lisinopril 10 MG Oral Tablet</div>",
                    "status": "generated"
                },
                "whenHandedOver": "2004-05-15",
                "meta": {
                    "tag": [
                        {
                            "system": "https://smarthealthit.org/tags",
                            "code": "smart-7-2017"
                        }
                    ]
                }
            },
            "fullUrl": "/MedicationDispense/smart-MedicationDispense-658"
        },
        {
            "request": {
                "method": "PUT",
                "url": "MedicationDispense/smart-MedicationDispense-670"
            },
            "resource": {
                "authorizingPrescription": {
                    "reference": "MedicationRequest/smart-MedicationRequest-190"
                },
                "daysSupply": {
                    "code": "d",
                    "system": "http://unitsofmeasure.org",
                    "unit": "days",
                    "value": 30
                },
                "id": "smart-MedicationDispense-670",
                "medicationCodeableConcept": {
                    "coding": [
                        {
                            "code": "197885",
                            "display": "Hydrochlorothiazide 12.5 MG / Lisinopril 10 MG Oral Tablet",
                            "system": "http://www.nlm.nih.gov/research/umls/rxnorm"
                        }
                    ],
                    "text": "Hydrochlorothiazide 12.5 MG / Lisinopril 10 MG Oral Tablet"
                },
                "quantity": {
                    "code": "{tablets}",
                    "system": "http://unitsofmeasure.org",
                    "unit": "tablets",
                    "value": 30
                },
                "resourceType": "MedicationDispense",
                "status": "completed",
                "subject": {
                    "reference": "Patient/smart-1685497"
                },
                "text": {
                    "div": "<div xmlns=\"http://www.w3.org/1999/xhtml\">Dispensed 30 tablets = 30 day supply of Hydrochlorothiazide 12.5 MG / Lisinopril 10 MG Oral Tablet</div>",
                    "status": "generated"
                },
                "whenHandedOver": "2005-05-22",
                "meta": {
                    "tag": [
                        {
                            "system": "https://smarthealthit.org/tags",
                            "code": "smart-7-2017"
                        }
                    ]
                }
            },
            "fullUrl": "/MedicationDispense/smart-MedicationDispense-670"
        },
        {
            "request": {
                "method": "PUT",
                "url": "MedicationDispense/smart-MedicationDispense-681"
            },
            "resource": {
                "authorizingPrescription": {
                    "reference": "MedicationRequest/smart-MedicationRequest-190"
                },
                "daysSupply": {
                    "code": "d",
                    "system": "http://unitsofmeasure.org",
                    "unit": "days",
                    "value": 30
                },
                "id": "smart-MedicationDispense-681",
                "medicationCodeableConcept": {
                    "coding": [
                        {
                            "code": "197885",
                            "display": "Hydrochlorothiazide 12.5 MG / Lisinopril 10 MG Oral Tablet",
                            "system": "http://www.nlm.nih.gov/research/umls/rxnorm"
                        }
                    ],
                    "text": "Hydrochlorothiazide 12.5 MG / Lisinopril 10 MG Oral Tablet"
                },
                "quantity": {
                    "code": "{tablets}",
                    "system": "http://unitsofmeasure.org",
                    "unit": "tablets",
                    "value": 30
                },
                "resourceType": "MedicationDispense",
                "status": "completed",
                "subject": {
                    "reference": "Patient/smart-1685497"
                },
                "text": {
                    "div": "<div xmlns=\"http://www.w3.org/1999/xhtml\">Dispensed 30 tablets = 30 day supply of Hydrochlorothiazide 12.5 MG / Lisinopril 10 MG Oral Tablet</div>",
                    "status": "generated"
                },
                "whenHandedOver": "2006-05-01",
                "meta": {
                    "tag": [
                        {
                            "system": "https://smarthealthit.org/tags",
                            "code": "smart-7-2017"
                        }
                    ]
                }
            },
            "fullUrl": "/MedicationDispense/smart-MedicationDispense-681"
        },
        {
            "request": {
                "method": "PUT",
                "url": "MedicationDispense/smart-MedicationDispense-686"
            },
            "resource": {
                "authorizingPrescription": {
                    "reference": "MedicationRequest/smart-MedicationRequest-190"
                },
                "daysSupply": {
                    "code": "d",
                    "system": "http://unitsofmeasure.org",
                    "unit": "days",
                    "value": 30
                },
                "id": "smart-MedicationDispense-686",
                "medicationCodeableConcept": {
                    "coding": [
                        {
                            "code": "197885",
                            "display": "Hydrochlorothiazide 12.5 MG / Lisinopril 10 MG Oral Tablet",
                            "system": "http://www.nlm.nih.gov/research/umls/rxnorm"
                        }
                    ],
                    "text": "Hydrochlorothiazide 12.5 MG / Lisinopril 10 MG Oral Tablet"
                },
                "quantity": {
                    "code": "{tablets}",
                    "system": "http://unitsofmeasure.org",
                    "unit": "tablets",
                    "value": 30
                },
                "resourceType": "MedicationDispense",
                "status": "completed",
                "subject": {
                    "reference": "Patient/smart-1685497"
                },
                "text": {
                    "div": "<div xmlns=\"http://www.w3.org/1999/xhtml\">Dispensed 30 tablets = 30 day supply of Hydrochlorothiazide 12.5 MG / Lisinopril 10 MG Oral Tablet</div>",
                    "status": "generated"
                },
                "whenHandedOver": "2006-09-25",
                "meta": {
                    "tag": [
                        {
                            "system": "https://smarthealthit.org/tags",
                            "code": "smart-7-2017"
                        }
                    ]
                }
            },
            "fullUrl": "/MedicationDispense/smart-MedicationDispense-686"
        },
        {
            "request": {
                "method": "PUT",
                "url": "MedicationDispense/smart-MedicationDispense-661"
            },
            "resource": {
                "authorizingPrescription": {
                    "reference": "MedicationRequest/smart-MedicationRequest-190"
                },
                "daysSupply": {
                    "code": "d",
                    "system": "http://unitsofmeasure.org",
                    "unit": "days",
                    "value": 30
                },
                "id": "smart-MedicationDispense-661",
                "medicationCodeableConcept": {
                    "coding": [
                        {
                            "code": "197885",
                            "display": "Hydrochlorothiazide 12.5 MG / Lisinopril 10 MG Oral Tablet",
                            "system": "http://www.nlm.nih.gov/research/umls/rxnorm"
                        }
                    ],
                    "text": "Hydrochlorothiazide 12.5 MG / Lisinopril 10 MG Oral Tablet"
                },
                "quantity": {
                    "code": "{tablets}",
                    "system": "http://unitsofmeasure.org",
                    "unit": "tablets",
                    "value": 30
                },
                "resourceType": "MedicationDispense",
                "status": "completed",
                "subject": {
                    "reference": "Patient/smart-1685497"
                },
                "text": {
                    "div": "<div xmlns=\"http://www.w3.org/1999/xhtml\">Dispensed 30 tablets = 30 day supply of Hydrochlorothiazide 12.5 MG / Lisinopril 10 MG Oral Tablet</div>",
                    "status": "generated"
                },
                "whenHandedOver": "2004-08-18",
                "meta": {
                    "tag": [
                        {
                            "system": "https://smarthealthit.org/tags",
                            "code": "smart-7-2017"
                        }
                    ]
                }
            },
            "fullUrl": "/MedicationDispense/smart-MedicationDispense-661"
        },
        {
            "request": {
                "method": "PUT",
                "url": "MedicationDispense/smart-MedicationDispense-688"
            },
            "resource": {
                "authorizingPrescription": {
                    "reference": "MedicationRequest/smart-MedicationRequest-190"
                },
                "daysSupply": {
                    "code": "d",
                    "system": "http://unitsofmeasure.org",
                    "unit": "days",
                    "value": 30
                },
                "id": "smart-MedicationDispense-688",
                "medicationCodeableConcept": {
                    "coding": [
                        {
                            "code": "197885",
                            "display": "Hydrochlorothiazide 12.5 MG / Lisinopril 10 MG Oral Tablet",
                            "system": "http://www.nlm.nih.gov/research/umls/rxnorm"
                        }
                    ],
                    "text": "Hydrochlorothiazide 12.5 MG / Lisinopril 10 MG Oral Tablet"
                },
                "quantity": {
                    "code": "{tablets}",
                    "system": "http://unitsofmeasure.org",
                    "unit": "tablets",
                    "value": 30
                },
                "resourceType": "MedicationDispense",
                "status": "completed",
                "subject": {
                    "reference": "Patient/smart-1685497"
                },
                "text": {
                    "div": "<div xmlns=\"http://www.w3.org/1999/xhtml\">Dispensed 30 tablets = 30 day supply of Hydrochlorothiazide 12.5 MG / Lisinopril 10 MG Oral Tablet</div>",
                    "status": "generated"
                },
                "whenHandedOver": "2006-11-27",
                "meta": {
                    "tag": [
                        {
                            "system": "https://smarthealthit.org/tags",
                            "code": "smart-7-2017"
                        }
                    ]
                }
            },
            "fullUrl": "/MedicationDispense/smart-MedicationDispense-688"
        },
        {
            "request": {
                "method": "PUT",
                "url": "MedicationDispense/smart-MedicationDispense-652"
            },
            "resource": {
                "authorizingPrescription": {
                    "reference": "MedicationRequest/smart-MedicationRequest-190"
                },
                "daysSupply": {
                    "code": "d",
                    "system": "http://unitsofmeasure.org",
                    "unit": "days",
                    "value": 30
                },
                "id": "smart-MedicationDispense-652",
                "medicationCodeableConcept": {
                    "coding": [
                        {
                            "code": "197885",
                            "display": "Hydrochlorothiazide 12.5 MG / Lisinopril 10 MG Oral Tablet",
                            "system": "http://www.nlm.nih.gov/research/umls/rxnorm"
                        }
                    ],
                    "text": "Hydrochlorothiazide 12.5 MG / Lisinopril 10 MG Oral Tablet"
                },
                "quantity": {
                    "code": "{tablets}",
                    "system": "http://unitsofmeasure.org",
                    "unit": "tablets",
                    "value": 30
                },
                "resourceType": "MedicationDispense",
                "status": "completed",
                "subject": {
                    "reference": "Patient/smart-1685497"
                },
                "text": {
                    "div": "<div xmlns=\"http://www.w3.org/1999/xhtml\">Dispensed 30 tablets = 30 day supply of Hydrochlorothiazide 12.5 MG / Lisinopril 10 MG Oral Tablet</div>",
                    "status": "generated"
                },
                "whenHandedOver": "2003-11-18",
                "meta": {
                    "tag": [
                        {
                            "system": "https://smarthealthit.org/tags",
                            "code": "smart-7-2017"
                        }
                    ]
                }
            },
            "fullUrl": "/MedicationDispense/smart-MedicationDispense-652"
        },
        {
            "request": {
                "method": "PUT",
                "url": "MedicationDispense/smart-MedicationDispense-666"
            },
            "resource": {
                "authorizingPrescription": {
                    "reference": "MedicationRequest/smart-MedicationRequest-190"
                },
                "daysSupply": {
                    "code": "d",
                    "system": "http://unitsofmeasure.org",
                    "unit": "days",
                    "value": 30
                },
                "id": "smart-MedicationDispense-666",
                "medicationCodeableConcept": {
                    "coding": [
                        {
                            "code": "197885",
                            "display": "Hydrochlorothiazide 12.5 MG / Lisinopril 10 MG Oral Tablet",
                            "system": "http://www.nlm.nih.gov/research/umls/rxnorm"
                        }
                    ],
                    "text": "Hydrochlorothiazide 12.5 MG / Lisinopril 10 MG Oral Tablet"
                },
                "quantity": {
                    "code": "{tablets}",
                    "system": "http://unitsofmeasure.org",
                    "unit": "tablets",
                    "value": 30
                },
                "resourceType": "MedicationDispense",
                "status": "completed",
                "subject": {
                    "reference": "Patient/smart-1685497"
                },
                "text": {
                    "div": "<div xmlns=\"http://www.w3.org/1999/xhtml\">Dispensed 30 tablets = 30 day supply of Hydrochlorothiazide 12.5 MG / Lisinopril 10 MG Oral Tablet</div>",
                    "status": "generated"
                },
                "whenHandedOver": "2005-01-18",
                "meta": {
                    "tag": [
                        {
                            "system": "https://smarthealthit.org/tags",
                            "code": "smart-7-2017"
                        }
                    ]
                }
            },
            "fullUrl": "/MedicationDispense/smart-MedicationDispense-666"
        },
        {
            "request": {
                "method": "PUT",
                "url": "MedicationRequest/smart-MedicationRequest-191"
            },
            "resource": {
                "dispenseRequest": {
                    "expectedSupplyDuration": {
                        "code": "d",
                        "system": "http://unitsofmeasure.org",
                        "unit": "days",
                        "value": 30
                    },
                    "numberOfRepeatsAllowed": 1,
                    "quantity": {
                        "code": "{tablet}",
                        "system": "http://unitsofmeasure.org",
                        "unit": "{tablet}",
                        "value": 30
                    }
                },
                "dosageInstruction": [
                    {
                        "doseQuantity": {
                            "code": "{tablet}",
                            "system": "http://unitsofmeasure.org",
                            "unit": "{tablet}",
                            "value": 1
                        },
                        "text": "1 qhs",
                        "timing": {
                            "repeat": {
                                "boundsPeriod": {
                                    "start": "2003-11-25"
                                },
                                "frequency": 1,
                                "period": 1,
                                "periodUnit": "d"
                            }
                        }
                    }
                ],
                "id": "smart-MedicationRequest-191",
                "intent": "order",
                "medicationCodeableConcept": {
                    "coding": [
                        {
                            "code": "311946",
                            "display": "Niacin 500 MG Extended Release Tablet [Niaspan]",
                            "system": "http://www.nlm.nih.gov/research/umls/rxnorm"
                        }
                    ],
                    "text": "Niacin 500 MG Extended Release Tablet [Niaspan]"
                },
                "resourceType": "MedicationRequest",
                "status": "active",
                "subject": {
                    "reference": "Patient/smart-1685497"
                },
                "text": {
                    "div": "<div xmlns=\"http://www.w3.org/1999/xhtml\">Niacin 500 MG Extended Release Tablet [Niaspan] (rxnorm: 311946)</div>",
                    "status": "generated"
                },
                "meta": {
                    "tag": [
                        {
                            "system": "https://smarthealthit.org/tags",
                            "code": "smart-7-2017"
                        }
                    ]
                }
            },
            "fullUrl": "/MedicationRequest/smart-MedicationRequest-191"
        },
        {
            "request": {
                "method": "PUT",
                "url": "MedicationDispense/smart-MedicationDispense-706"
            },
            "resource": {
                "authorizingPrescription": {
                    "reference": "MedicationRequest/smart-MedicationRequest-191"
                },
                "daysSupply": {
                    "code": "d",
                    "system": "http://unitsofmeasure.org",
                    "unit": "days",
                    "value": 30
                },
                "id": "smart-MedicationDispense-706",
                "medicationCodeableConcept": {
                    "coding": [
                        {
                            "code": "311946",
                            "display": "Niacin 500 MG Extended Release Tablet [Niaspan]",
                            "system": "http://www.nlm.nih.gov/research/umls/rxnorm"
                        }
                    ],
                    "text": "Niacin 500 MG Extended Release Tablet [Niaspan]"
                },
                "quantity": {
                    "code": "{tablets}",
                    "system": "http://unitsofmeasure.org",
                    "unit": "tablets",
                    "value": 30
                },
                "resourceType": "MedicationDispense",
                "status": "completed",
                "subject": {
                    "reference": "Patient/smart-1685497"
                },
                "text": {
                    "div": "<div xmlns=\"http://www.w3.org/1999/xhtml\">Dispensed 30 tablets = 30 day supply of Niacin 500 MG Extended Release Tablet [Niaspan]</div>",
                    "status": "generated"
                },
                "whenHandedOver": "2004-01-04",
                "meta": {
                    "tag": [
                        {
                            "system": "https://smarthealthit.org/tags",
                            "code": "smart-7-2017"
                        }
                    ]
                }
            },
            "fullUrl": "/MedicationDispense/smart-MedicationDispense-706"
        },
        {
            "request": {
                "method": "PUT",
                "url": "MedicationDispense/smart-MedicationDispense-712"
            },
            "resource": {
                "authorizingPrescription": {
                    "reference": "MedicationRequest/smart-MedicationRequest-191"
                },
                "daysSupply": {
                    "code": "d",
                    "system": "http://unitsofmeasure.org",
                    "unit": "days",
                    "value": 30
                },
                "id": "smart-MedicationDispense-712",
                "medicationCodeableConcept": {
                    "coding": [
                        {
                            "code": "311946",
                            "display": "Niacin 500 MG Extended Release Tablet [Niaspan]",
                            "system": "http://www.nlm.nih.gov/research/umls/rxnorm"
                        }
                    ],
                    "text": "Niacin 500 MG Extended Release Tablet [Niaspan]"
                },
                "quantity": {
                    "code": "{tablets}",
                    "system": "http://unitsofmeasure.org",
                    "unit": "tablets",
                    "value": 30
                },
                "resourceType": "MedicationDispense",
                "status": "completed",
                "subject": {
                    "reference": "Patient/smart-1685497"
                },
                "text": {
                    "div": "<div xmlns=\"http://www.w3.org/1999/xhtml\">Dispensed 30 tablets = 30 day supply of Niacin 500 MG Extended Release Tablet [Niaspan]</div>",
                    "status": "generated"
                },
                "whenHandedOver": "2004-08-04",
                "meta": {
                    "tag": [
                        {
                            "system": "https://smarthealthit.org/tags",
                            "code": "smart-7-2017"
                        }
                    ]
                }
            },
            "fullUrl": "/MedicationDispense/smart-MedicationDispense-712"
        },
        {
            "request": {
                "method": "PUT",
                "url": "MedicationDispense/smart-MedicationDispense-713"
            },
            "resource": {
                "authorizingPrescription": {
                    "reference": "MedicationRequest/smart-MedicationRequest-191"
                },
                "daysSupply": {
                    "code": "d",
                    "system": "http://unitsofmeasure.org",
                    "unit": "days",
                    "value": 30
                },
                "id": "smart-MedicationDispense-713",
                "medicationCodeableConcept": {
                    "coding": [
                        {
                            "code": "311946",
                            "display": "Niacin 500 MG Extended Release Tablet [Niaspan]",
                            "system": "http://www.nlm.nih.gov/research/umls/rxnorm"
                        }
                    ],
                    "text": "Niacin 500 MG Extended Release Tablet [Niaspan]"
                },
                "quantity": {
                    "code": "{tablets}",
                    "system": "http://unitsofmeasure.org",
                    "unit": "tablets",
                    "value": 30
                },
                "resourceType": "MedicationDispense",
                "status": "completed",
                "subject": {
                    "reference": "Patient/smart-1685497"
                },
                "text": {
                    "div": "<div xmlns=\"http://www.w3.org/1999/xhtml\">Dispensed 30 tablets = 30 day supply of Niacin 500 MG Extended Release Tablet [Niaspan]</div>",
                    "status": "generated"
                },
                "whenHandedOver": "2004-09-07",
                "meta": {
                    "tag": [
                        {
                            "system": "https://smarthealthit.org/tags",
                            "code": "smart-7-2017"
                        }
                    ]
                }
            },
            "fullUrl": "/MedicationDispense/smart-MedicationDispense-713"
        },
        {
            "request": {
                "method": "PUT",
                "url": "MedicationDispense/smart-MedicationDispense-711"
            },
            "resource": {
                "authorizingPrescription": {
                    "reference": "MedicationRequest/smart-MedicationRequest-191"
                },
                "daysSupply": {
                    "code": "d",
                    "system": "http://unitsofmeasure.org",
                    "unit": "days",
                    "value": 30
                },
                "id": "smart-MedicationDispense-711",
                "medicationCodeableConcept": {
                    "coding": [
                        {
                            "code": "311946",
                            "display": "Niacin 500 MG Extended Release Tablet [Niaspan]",
                            "system": "http://www.nlm.nih.gov/research/umls/rxnorm"
                        }
                    ],
                    "text": "Niacin 500 MG Extended Release Tablet [Niaspan]"
                },
                "quantity": {
                    "code": "{tablets}",
                    "system": "http://unitsofmeasure.org",
                    "unit": "tablets",
                    "value": 30
                },
                "resourceType": "MedicationDispense",
                "status": "completed",
                "subject": {
                    "reference": "Patient/smart-1685497"
                },
                "text": {
                    "div": "<div xmlns=\"http://www.w3.org/1999/xhtml\">Dispensed 30 tablets = 30 day supply of Niacin 500 MG Extended Release Tablet [Niaspan]</div>",
                    "status": "generated"
                },
                "whenHandedOver": "2004-06-22",
                "meta": {
                    "tag": [
                        {
                            "system": "https://smarthealthit.org/tags",
                            "code": "smart-7-2017"
                        }
                    ]
                }
            },
            "fullUrl": "/MedicationDispense/smart-MedicationDispense-711"
        },
        {
            "request": {
                "method": "PUT",
                "url": "MedicationDispense/smart-MedicationDispense-708"
            },
            "resource": {
                "authorizingPrescription": {
                    "reference": "MedicationRequest/smart-MedicationRequest-191"
                },
                "daysSupply": {
                    "code": "d",
                    "system": "http://unitsofmeasure.org",
                    "unit": "days",
                    "value": 30
                },
                "id": "smart-MedicationDispense-708",
                "medicationCodeableConcept": {
                    "coding": [
                        {
                            "code": "311946",
                            "display": "Niacin 500 MG Extended Release Tablet [Niaspan]",
                            "system": "http://www.nlm.nih.gov/research/umls/rxnorm"
                        }
                    ],
                    "text": "Niacin 500 MG Extended Release Tablet [Niaspan]"
                },
                "quantity": {
                    "code": "{tablets}",
                    "system": "http://unitsofmeasure.org",
                    "unit": "tablets",
                    "value": 30
                },
                "resourceType": "MedicationDispense",
                "status": "completed",
                "subject": {
                    "reference": "Patient/smart-1685497"
                },
                "text": {
                    "div": "<div xmlns=\"http://www.w3.org/1999/xhtml\">Dispensed 30 tablets = 30 day supply of Niacin 500 MG Extended Release Tablet [Niaspan]</div>",
                    "status": "generated"
                },
                "whenHandedOver": "2004-03-12",
                "meta": {
                    "tag": [
                        {
                            "system": "https://smarthealthit.org/tags",
                            "code": "smart-7-2017"
                        }
                    ]
                }
            },
            "fullUrl": "/MedicationDispense/smart-MedicationDispense-708"
        },
        {
            "request": {
                "method": "PUT",
                "url": "MedicationDispense/smart-MedicationDispense-715"
            },
            "resource": {
                "authorizingPrescription": {
                    "reference": "MedicationRequest/smart-MedicationRequest-191"
                },
                "daysSupply": {
                    "code": "d",
                    "system": "http://unitsofmeasure.org",
                    "unit": "days",
                    "value": 30
                },
                "id": "smart-MedicationDispense-715",
                "medicationCodeableConcept": {
                    "coding": [
                        {
                            "code": "311946",
                            "display": "Niacin 500 MG Extended Release Tablet [Niaspan]",
                            "system": "http://www.nlm.nih.gov/research/umls/rxnorm"
                        }
                    ],
                    "text": "Niacin 500 MG Extended Release Tablet [Niaspan]"
                },
                "quantity": {
                    "code": "{tablets}",
                    "system": "http://unitsofmeasure.org",
                    "unit": "tablets",
                    "value": 30
                },
                "resourceType": "MedicationDispense",
                "status": "completed",
                "subject": {
                    "reference": "Patient/smart-1685497"
                },
                "text": {
                    "div": "<div xmlns=\"http://www.w3.org/1999/xhtml\">Dispensed 30 tablets = 30 day supply of Niacin 500 MG Extended Release Tablet [Niaspan]</div>",
                    "status": "generated"
                },
                "whenHandedOver": "2004-11-19",
                "meta": {
                    "tag": [
                        {
                            "system": "https://smarthealthit.org/tags",
                            "code": "smart-7-2017"
                        }
                    ]
                }
            },
            "fullUrl": "/MedicationDispense/smart-MedicationDispense-715"
        },
        {
            "request": {
                "method": "PUT",
                "url": "MedicationDispense/smart-MedicationDispense-710"
            },
            "resource": {
                "authorizingPrescription": {
                    "reference": "MedicationRequest/smart-MedicationRequest-191"
                },
                "daysSupply": {
                    "code": "d",
                    "system": "http://unitsofmeasure.org",
                    "unit": "days",
                    "value": 30
                },
                "id": "smart-MedicationDispense-710",
                "medicationCodeableConcept": {
                    "coding": [
                        {
                            "code": "311946",
                            "display": "Niacin 500 MG Extended Release Tablet [Niaspan]",
                            "system": "http://www.nlm.nih.gov/research/umls/rxnorm"
                        }
                    ],
                    "text": "Niacin 500 MG Extended Release Tablet [Niaspan]"
                },
                "quantity": {
                    "code": "{tablets}",
                    "system": "http://unitsofmeasure.org",
                    "unit": "tablets",
                    "value": 30
                },
                "resourceType": "MedicationDispense",
                "status": "completed",
                "subject": {
                    "reference": "Patient/smart-1685497"
                },
                "text": {
                    "div": "<div xmlns=\"http://www.w3.org/1999/xhtml\">Dispensed 30 tablets = 30 day supply of Niacin 500 MG Extended Release Tablet [Niaspan]</div>",
                    "status": "generated"
                },
                "whenHandedOver": "2004-05-17",
                "meta": {
                    "tag": [
                        {
                            "system": "https://smarthealthit.org/tags",
                            "code": "smart-7-2017"
                        }
                    ]
                }
            },
            "fullUrl": "/MedicationDispense/smart-MedicationDispense-710"
        },
        {
            "request": {
                "method": "PUT",
                "url": "MedicationDispense/smart-MedicationDispense-705"
            },
            "resource": {
                "authorizingPrescription": {
                    "reference": "MedicationRequest/smart-MedicationRequest-191"
                },
                "daysSupply": {
                    "code": "d",
                    "system": "http://unitsofmeasure.org",
                    "unit": "days",
                    "value": 30
                },
                "id": "smart-MedicationDispense-705",
                "medicationCodeableConcept": {
                    "coding": [
                        {
                            "code": "311946",
                            "display": "Niacin 500 MG Extended Release Tablet [Niaspan]",
                            "system": "http://www.nlm.nih.gov/research/umls/rxnorm"
                        }
                    ],
                    "text": "Niacin 500 MG Extended Release Tablet [Niaspan]"
                },
                "quantity": {
                    "code": "{tablets}",
                    "system": "http://unitsofmeasure.org",
                    "unit": "tablets",
                    "value": 30
                },
                "resourceType": "MedicationDispense",
                "status": "completed",
                "subject": {
                    "reference": "Patient/smart-1685497"
                },
                "text": {
                    "div": "<div xmlns=\"http://www.w3.org/1999/xhtml\">Dispensed 30 tablets = 30 day supply of Niacin 500 MG Extended Release Tablet [Niaspan]</div>",
                    "status": "generated"
                },
                "whenHandedOver": "2003-11-25",
                "meta": {
                    "tag": [
                        {
                            "system": "https://smarthealthit.org/tags",
                            "code": "smart-7-2017"
                        }
                    ]
                }
            },
            "fullUrl": "/MedicationDispense/smart-MedicationDispense-705"
        },
        {
            "request": {
                "method": "PUT",
                "url": "MedicationDispense/smart-MedicationDispense-709"
            },
            "resource": {
                "authorizingPrescription": {
                    "reference": "MedicationRequest/smart-MedicationRequest-191"
                },
                "daysSupply": {
                    "code": "d",
                    "system": "http://unitsofmeasure.org",
                    "unit": "days",
                    "value": 30
                },
                "id": "smart-MedicationDispense-709",
                "medicationCodeableConcept": {
                    "coding": [
                        {
                            "code": "311946",
                            "display": "Niacin 500 MG Extended Release Tablet [Niaspan]",
                            "system": "http://www.nlm.nih.gov/research/umls/rxnorm"
                        }
                    ],
                    "text": "Niacin 500 MG Extended Release Tablet [Niaspan]"
                },
                "quantity": {
                    "code": "{tablets}",
                    "system": "http://unitsofmeasure.org",
                    "unit": "tablets",
                    "value": 30
                },
                "resourceType": "MedicationDispense",
                "status": "completed",
                "subject": {
                    "reference": "Patient/smart-1685497"
                },
                "text": {
                    "div": "<div xmlns=\"http://www.w3.org/1999/xhtml\">Dispensed 30 tablets = 30 day supply of Niacin 500 MG Extended Release Tablet [Niaspan]</div>",
                    "status": "generated"
                },
                "whenHandedOver": "2004-04-13",
                "meta": {
                    "tag": [
                        {
                            "system": "https://smarthealthit.org/tags",
                            "code": "smart-7-2017"
                        }
                    ]
                }
            },
            "fullUrl": "/MedicationDispense/smart-MedicationDispense-709"
        },
        {
            "request": {
                "method": "PUT",
                "url": "MedicationDispense/smart-MedicationDispense-707"
            },
            "resource": {
                "authorizingPrescription": {
                    "reference": "MedicationRequest/smart-MedicationRequest-191"
                },
                "daysSupply": {
                    "code": "d",
                    "system": "http://unitsofmeasure.org",
                    "unit": "days",
                    "value": 30
                },
                "id": "smart-MedicationDispense-707",
                "medicationCodeableConcept": {
                    "coding": [
                        {
                            "code": "311946",
                            "display": "Niacin 500 MG Extended Release Tablet [Niaspan]",
                            "system": "http://www.nlm.nih.gov/research/umls/rxnorm"
                        }
                    ],
                    "text": "Niacin 500 MG Extended Release Tablet [Niaspan]"
                },
                "quantity": {
                    "code": "{tablets}",
                    "system": "http://unitsofmeasure.org",
                    "unit": "tablets",
                    "value": 30
                },
                "resourceType": "MedicationDispense",
                "status": "completed",
                "subject": {
                    "reference": "Patient/smart-1685497"
                },
                "text": {
                    "div": "<div xmlns=\"http://www.w3.org/1999/xhtml\">Dispensed 30 tablets = 30 day supply of Niacin 500 MG Extended Release Tablet [Niaspan]</div>",
                    "status": "generated"
                },
                "whenHandedOver": "2004-02-04",
                "meta": {
                    "tag": [
                        {
                            "system": "https://smarthealthit.org/tags",
                            "code": "smart-7-2017"
                        }
                    ]
                }
            },
            "fullUrl": "/MedicationDispense/smart-MedicationDispense-707"
        },
        {
            "request": {
                "method": "PUT",
                "url": "MedicationDispense/smart-MedicationDispense-714"
            },
            "resource": {
                "authorizingPrescription": {
                    "reference": "MedicationRequest/smart-MedicationRequest-191"
                },
                "daysSupply": {
                    "code": "d",
                    "system": "http://unitsofmeasure.org",
                    "unit": "days",
                    "value": 30
                },
                "id": "smart-MedicationDispense-714",
                "medicationCodeableConcept": {
                    "coding": [
                        {
                            "code": "311946",
                            "display": "Niacin 500 MG Extended Release Tablet [Niaspan]",
                            "system": "http://www.nlm.nih.gov/research/umls/rxnorm"
                        }
                    ],
                    "text": "Niacin 500 MG Extended Release Tablet [Niaspan]"
                },
                "quantity": {
                    "code": "{tablets}",
                    "system": "http://unitsofmeasure.org",
                    "unit": "tablets",
                    "value": 30
                },
                "resourceType": "MedicationDispense",
                "status": "completed",
                "subject": {
                    "reference": "Patient/smart-1685497"
                },
                "text": {
                    "div": "<div xmlns=\"http://www.w3.org/1999/xhtml\">Dispensed 30 tablets = 30 day supply of Niacin 500 MG Extended Release Tablet [Niaspan]</div>",
                    "status": "generated"
                },
                "whenHandedOver": "2004-10-09",
                "meta": {
                    "tag": [
                        {
                            "system": "https://smarthealthit.org/tags",
                            "code": "smart-7-2017"
                        }
                    ]
                }
            },
            "fullUrl": "/MedicationDispense/smart-MedicationDispense-714"
        },
        {
            "request": {
                "method": "PUT",
                "url": "MedicationRequest/smart-MedicationRequest-192"
            },
            "resource": {
                "dispenseRequest": {
                    "expectedSupplyDuration": {
                        "code": "d",
                        "system": "http://unitsofmeasure.org",
                        "unit": "days",
                        "value": 30
                    },
                    "numberOfRepeatsAllowed": 1,
                    "quantity": {
                        "code": "{tablet}",
                        "system": "http://unitsofmeasure.org",
                        "unit": "{tablet}",
                        "value": 60
                    }
                },
                "dosageInstruction": [
                    {
                        "doseQuantity": {
                            "code": "{tablet}",
                            "system": "http://unitsofmeasure.org",
                            "unit": "{tablet}",
                            "value": 1
                        },
                        "text": "1 bid",
                        "timing": {
                            "repeat": {
                                "boundsPeriod": {
                                    "start": "2004-09-06"
                                },
                                "frequency": 2,
                                "period": 1,
                                "periodUnit": "d"
                            }
                        }
                    }
                ],
                "id": "smart-MedicationRequest-192",
                "intent": "order",
                "medicationCodeableConcept": {
                    "coding": [
                        {
                            "code": "308194",
                            "display": "Amoxicillin 875 MG Oral Tablet",
                            "system": "http://www.nlm.nih.gov/research/umls/rxnorm"
                        }
                    ],
                    "text": "Amoxicillin 875 MG Oral Tablet"
                },
                "resourceType": "MedicationRequest",
                "status": "active",
                "subject": {
                    "reference": "Patient/smart-1685497"
                },
                "text": {
                    "div": "<div xmlns=\"http://www.w3.org/1999/xhtml\">Amoxicillin 875 MG Oral Tablet (rxnorm: 308194)</div>",
                    "status": "generated"
                },
                "meta": {
                    "tag": [
                        {
                            "system": "https://smarthealthit.org/tags",
                            "code": "smart-7-2017"
                        }
                    ]
                }
            },
            "fullUrl": "/MedicationRequest/smart-MedicationRequest-192"
        },
        {
            "request": {
                "method": "PUT",
                "url": "MedicationDispense/smart-MedicationDispense-699"
            },
            "resource": {
                "authorizingPrescription": {
                    "reference": "MedicationRequest/smart-MedicationRequest-192"
                },
                "daysSupply": {
                    "code": "d",
                    "system": "http://unitsofmeasure.org",
                    "unit": "days",
                    "value": 30
                },
                "id": "smart-MedicationDispense-699",
                "medicationCodeableConcept": {
                    "coding": [
                        {
                            "code": "308194",
                            "display": "Amoxicillin 875 MG Oral Tablet",
                            "system": "http://www.nlm.nih.gov/research/umls/rxnorm"
                        }
                    ],
                    "text": "Amoxicillin 875 MG Oral Tablet"
                },
                "quantity": {
                    "code": "{tablets}",
                    "system": "http://unitsofmeasure.org",
                    "unit": "tablets",
                    "value": 60
                },
                "resourceType": "MedicationDispense",
                "status": "completed",
                "subject": {
                    "reference": "Patient/smart-1685497"
                },
                "text": {
                    "div": "<div xmlns=\"http://www.w3.org/1999/xhtml\">Dispensed 60 tablets = 30 day supply of Amoxicillin 875 MG Oral Tablet</div>",
                    "status": "generated"
                },
                "whenHandedOver": "2004-09-06",
                "meta": {
                    "tag": [
                        {
                            "system": "https://smarthealthit.org/tags",
                            "code": "smart-7-2017"
                        }
                    ]
                }
            },
            "fullUrl": "/MedicationDispense/smart-MedicationDispense-699"
        },
        {
            "request": {
                "method": "PUT",
                "url": "MedicationRequest/smart-MedicationRequest-193"
            },
            "resource": {
                "dispenseRequest": {
                    "expectedSupplyDuration": {
                        "code": "d",
                        "system": "http://unitsofmeasure.org",
                        "unit": "days",
                        "value": 30
                    },
                    "numberOfRepeatsAllowed": 1,
                    "quantity": {
                        "code": "{tablet}",
                        "system": "http://unitsofmeasure.org",
                        "unit": "{tablet}",
                        "value": 30
                    }
                },
                "dosageInstruction": [
                    {
                        "doseQuantity": {
                            "code": "{tablet}",
                            "system": "http://unitsofmeasure.org",
                            "unit": "{tablet}",
                            "value": 1
                        },
                        "text": "1 qhs",
                        "timing": {
                            "repeat": {
                                "boundsPeriod": {
                                    "start": "2004-12-25"
                                },
                                "frequency": 1,
                                "period": 1,
                                "periodUnit": "d"
                            }
                        }
                    }
                ],
                "id": "smart-MedicationRequest-193",
                "intent": "order",
                "medicationCodeableConcept": {
                    "coding": [
                        {
                            "code": "311945",
                            "display": "Niacin 1000 MG Extended Release Tablet [Niaspan]",
                            "system": "http://www.nlm.nih.gov/research/umls/rxnorm"
                        }
                    ],
                    "text": "Niacin 1000 MG Extended Release Tablet [Niaspan]"
                },
                "resourceType": "MedicationRequest",
                "status": "active",
                "subject": {
                    "reference": "Patient/smart-1685497"
                },
                "text": {
                    "div": "<div xmlns=\"http://www.w3.org/1999/xhtml\">Niacin 1000 MG Extended Release Tablet [Niaspan] (rxnorm: 311945)</div>",
                    "status": "generated"
                },
                "meta": {
                    "tag": [
                        {
                            "system": "https://smarthealthit.org/tags",
                            "code": "smart-7-2017"
                        }
                    ]
                }
            },
            "fullUrl": "/MedicationRequest/smart-MedicationRequest-193"
        },
        {
            "request": {
                "method": "PUT",
                "url": "MedicationDispense/smart-MedicationDispense-704"
            },
            "resource": {
                "authorizingPrescription": {
                    "reference": "MedicationRequest/smart-MedicationRequest-193"
                },
                "daysSupply": {
                    "code": "d",
                    "system": "http://unitsofmeasure.org",
                    "unit": "days",
                    "value": 30
                },
                "id": "smart-MedicationDispense-704",
                "medicationCodeableConcept": {
                    "coding": [
                        {
                            "code": "311945",
                            "display": "Niacin 1000 MG Extended Release Tablet [Niaspan]",
                            "system": "http://www.nlm.nih.gov/research/umls/rxnorm"
                        }
                    ],
                    "text": "Niacin 1000 MG Extended Release Tablet [Niaspan]"
                },
                "quantity": {
                    "code": "{tablets}",
                    "system": "http://unitsofmeasure.org",
                    "unit": "tablets",
                    "value": 30
                },
                "resourceType": "MedicationDispense",
                "status": "completed",
                "subject": {
                    "reference": "Patient/smart-1685497"
                },
                "text": {
                    "div": "<div xmlns=\"http://www.w3.org/1999/xhtml\">Dispensed 30 tablets = 30 day supply of Niacin 1000 MG Extended Release Tablet [Niaspan]</div>",
                    "status": "generated"
                },
                "whenHandedOver": "2005-01-18",
                "meta": {
                    "tag": [
                        {
                            "system": "https://smarthealthit.org/tags",
                            "code": "smart-7-2017"
                        }
                    ]
                }
            },
            "fullUrl": "/MedicationDispense/smart-MedicationDispense-704"
        },
        {
            "request": {
                "method": "PUT",
                "url": "MedicationDispense/smart-MedicationDispense-703"
            },
            "resource": {
                "authorizingPrescription": {
                    "reference": "MedicationRequest/smart-MedicationRequest-193"
                },
                "daysSupply": {
                    "code": "d",
                    "system": "http://unitsofmeasure.org",
                    "unit": "days",
                    "value": 30
                },
                "id": "smart-MedicationDispense-703",
                "medicationCodeableConcept": {
                    "coding": [
                        {
                            "code": "311945",
                            "display": "Niacin 1000 MG Extended Release Tablet [Niaspan]",
                            "system": "http://www.nlm.nih.gov/research/umls/rxnorm"
                        }
                    ],
                    "text": "Niacin 1000 MG Extended Release Tablet [Niaspan]"
                },
                "quantity": {
                    "code": "{tablets}",
                    "system": "http://unitsofmeasure.org",
                    "unit": "tablets",
                    "value": 30
                },
                "resourceType": "MedicationDispense",
                "status": "completed",
                "subject": {
                    "reference": "Patient/smart-1685497"
                },
                "text": {
                    "div": "<div xmlns=\"http://www.w3.org/1999/xhtml\">Dispensed 30 tablets = 30 day supply of Niacin 1000 MG Extended Release Tablet [Niaspan]</div>",
                    "status": "generated"
                },
                "whenHandedOver": "2004-12-25",
                "meta": {
                    "tag": [
                        {
                            "system": "https://smarthealthit.org/tags",
                            "code": "smart-7-2017"
                        }
                    ]
                }
            },
            "fullUrl": "/MedicationDispense/smart-MedicationDispense-703"
        },
        {
            "request": {
                "method": "PUT",
                "url": "MedicationRequest/smart-MedicationRequest-194"
            },
            "resource": {
                "dispenseRequest": {
                    "expectedSupplyDuration": {
                        "code": "d",
                        "system": "http://unitsofmeasure.org",
                        "unit": "days",
                        "value": 30
                    },
                    "numberOfRepeatsAllowed": 1,
                    "quantity": {
                        "code": "{tablet}",
                        "system": "http://unitsofmeasure.org",
                        "unit": "{tablet}",
                        "value": 30
                    }
                },
                "dosageInstruction": [
                    {
                        "doseQuantity": {
                            "code": "{tablet}",
                            "system": "http://unitsofmeasure.org",
                            "unit": "{tablet}",
                            "value": 1
                        },
                        "text": "1 daily",
                        "timing": {
                            "repeat": {
                                "boundsPeriod": {
                                    "start": "2005-01-18"
                                },
                                "frequency": 1,
                                "period": 1,
                                "periodUnit": "d"
                            }
                        }
                    }
                ],
                "id": "smart-MedicationRequest-194",
                "intent": "order",
                "medicationCodeableConcept": {
                    "coding": [
                        {
                            "code": "213186",
                            "display": "sibutramine 10 MG Oral Capsule [Meridia]",
                            "system": "http://www.nlm.nih.gov/research/umls/rxnorm"
                        }
                    ],
                    "text": "sibutramine 10 MG Oral Capsule [Meridia]"
                },
                "resourceType": "MedicationRequest",
                "status": "active",
                "subject": {
                    "reference": "Patient/smart-1685497"
                },
                "text": {
                    "div": "<div xmlns=\"http://www.w3.org/1999/xhtml\">sibutramine 10 MG Oral Capsule [Meridia] (rxnorm: 213186)</div>",
                    "status": "generated"
                },
                "meta": {
                    "tag": [
                        {
                            "system": "https://smarthealthit.org/tags",
                            "code": "smart-7-2017"
                        }
                    ]
                }
            },
            "fullUrl": "/MedicationRequest/smart-MedicationRequest-194"
        },
        {
            "request": {
                "method": "PUT",
                "url": "MedicationDispense/smart-MedicationDispense-700"
            },
            "resource": {
                "authorizingPrescription": {
                    "reference": "MedicationRequest/smart-MedicationRequest-194"
                },
                "daysSupply": {
                    "code": "d",
                    "system": "http://unitsofmeasure.org",
                    "unit": "days",
                    "value": 30
                },
                "id": "smart-MedicationDispense-700",
                "medicationCodeableConcept": {
                    "coding": [
                        {
                            "code": "213186",
                            "display": "sibutramine 10 MG Oral Capsule [Meridia]",
                            "system": "http://www.nlm.nih.gov/research/umls/rxnorm"
                        }
                    ],
                    "text": "sibutramine 10 MG Oral Capsule [Meridia]"
                },
                "quantity": {
                    "code": "{tablets}",
                    "system": "http://unitsofmeasure.org",
                    "unit": "tablets",
                    "value": 30
                },
                "resourceType": "MedicationDispense",
                "status": "completed",
                "subject": {
                    "reference": "Patient/smart-1685497"
                },
                "text": {
                    "div": "<div xmlns=\"http://www.w3.org/1999/xhtml\">Dispensed 30 tablets = 30 day supply of sibutramine 10 MG Oral Capsule [Meridia]</div>",
                    "status": "generated"
                },
                "whenHandedOver": "2005-01-18",
                "meta": {
                    "tag": [
                        {
                            "system": "https://smarthealthit.org/tags",
                            "code": "smart-7-2017"
                        }
                    ]
                }
            },
            "fullUrl": "/MedicationDispense/smart-MedicationDispense-700"
        },
        {
            "request": {
                "method": "PUT",
                "url": "MedicationDispense/smart-MedicationDispense-701"
            },
            "resource": {
                "authorizingPrescription": {
                    "reference": "MedicationRequest/smart-MedicationRequest-194"
                },
                "daysSupply": {
                    "code": "d",
                    "system": "http://unitsofmeasure.org",
                    "unit": "days",
                    "value": 30
                },
                "id": "smart-MedicationDispense-701",
                "medicationCodeableConcept": {
                    "coding": [
                        {
                            "code": "213186",
                            "display": "sibutramine 10 MG Oral Capsule [Meridia]",
                            "system": "http://www.nlm.nih.gov/research/umls/rxnorm"
                        }
                    ],
                    "text": "sibutramine 10 MG Oral Capsule [Meridia]"
                },
                "quantity": {
                    "code": "{tablets}",
                    "system": "http://unitsofmeasure.org",
                    "unit": "tablets",
                    "value": 30
                },
                "resourceType": "MedicationDispense",
                "status": "completed",
                "subject": {
                    "reference": "Patient/smart-1685497"
                },
                "text": {
                    "div": "<div xmlns=\"http://www.w3.org/1999/xhtml\">Dispensed 30 tablets = 30 day supply of sibutramine 10 MG Oral Capsule [Meridia]</div>",
                    "status": "generated"
                },
                "whenHandedOver": "2005-02-17",
                "meta": {
                    "tag": [
                        {
                            "system": "https://smarthealthit.org/tags",
                            "code": "smart-7-2017"
                        }
                    ]
                }
            },
            "fullUrl": "/MedicationDispense/smart-MedicationDispense-701"
        },
        {
            "request": {
                "method": "PUT",
                "url": "MedicationDispense/smart-MedicationDispense-702"
            },
            "resource": {
                "authorizingPrescription": {
                    "reference": "MedicationRequest/smart-MedicationRequest-194"
                },
                "daysSupply": {
                    "code": "d",
                    "system": "http://unitsofmeasure.org",
                    "unit": "days",
                    "value": 30
                },
                "id": "smart-MedicationDispense-702",
                "medicationCodeableConcept": {
                    "coding": [
                        {
                            "code": "213186",
                            "display": "sibutramine 10 MG Oral Capsule [Meridia]",
                            "system": "http://www.nlm.nih.gov/research/umls/rxnorm"
                        }
                    ],
                    "text": "sibutramine 10 MG Oral Capsule [Meridia]"
                },
                "quantity": {
                    "code": "{tablets}",
                    "system": "http://unitsofmeasure.org",
                    "unit": "tablets",
                    "value": 30
                },
                "resourceType": "MedicationDispense",
                "status": "completed",
                "subject": {
                    "reference": "Patient/smart-1685497"
                },
                "text": {
                    "div": "<div xmlns=\"http://www.w3.org/1999/xhtml\">Dispensed 30 tablets = 30 day supply of sibutramine 10 MG Oral Capsule [Meridia]</div>",
                    "status": "generated"
                },
                "whenHandedOver": "2005-03-20",
                "meta": {
                    "tag": [
                        {
                            "system": "https://smarthealthit.org/tags",
                            "code": "smart-7-2017"
                        }
                    ]
                }
            },
            "fullUrl": "/MedicationDispense/smart-MedicationDispense-702"
        },
        {
            "request": {
                "method": "PUT",
                "url": "MedicationRequest/smart-MedicationRequest-195"
            },
            "resource": {
                "dispenseRequest": {
                    "expectedSupplyDuration": {
                        "code": "d",
                        "system": "http://unitsofmeasure.org",
                        "unit": "days",
                        "value": 30
                    },
                    "numberOfRepeatsAllowed": 1,
                    "quantity": {
                        "code": "{tablet}",
                        "system": "http://unitsofmeasure.org",
                        "unit": "{tablet}",
                        "value": 30
                    }
                },
                "dosageInstruction": [
                    {
                        "doseQuantity": {
                            "code": "{tablet}",
                            "system": "http://unitsofmeasure.org",
                            "unit": "{tablet}",
                            "value": 1
                        },
                        "text": "1 qhs",
                        "timing": {
                            "repeat": {
                                "boundsPeriod": {
                                    "start": "2005-01-24"
                                },
                                "frequency": 1,
                                "period": 1,
                                "periodUnit": "d"
                            }
                        }
                    }
                ],
                "id": "smart-MedicationRequest-195",
                "intent": "order",
                "medicationCodeableConcept": {
                    "coding": [
                        {
                            "code": "859749",
                            "display": "rosuvastatin 10 MG Oral Tablet [Crestor]",
                            "system": "http://www.nlm.nih.gov/research/umls/rxnorm"
                        }
                    ],
                    "text": "rosuvastatin 10 MG Oral Tablet [Crestor]"
                },
                "resourceType": "MedicationRequest",
                "status": "active",
                "subject": {
                    "reference": "Patient/smart-1685497"
                },
                "text": {
                    "div": "<div xmlns=\"http://www.w3.org/1999/xhtml\">rosuvastatin 10 MG Oral Tablet [Crestor] (rxnorm: 859749)</div>",
                    "status": "generated"
                },
                "meta": {
                    "tag": [
                        {
                            "system": "https://smarthealthit.org/tags",
                            "code": "smart-7-2017"
                        }
                    ]
                }
            },
            "fullUrl": "/MedicationRequest/smart-MedicationRequest-195"
        },
        {
            "request": {
                "method": "PUT",
                "url": "MedicationDispense/smart-MedicationDispense-728"
            },
            "resource": {
                "authorizingPrescription": {
                    "reference": "MedicationRequest/smart-MedicationRequest-195"
                },
                "daysSupply": {
                    "code": "d",
                    "system": "http://unitsofmeasure.org",
                    "unit": "days",
                    "value": 30
                },
                "id": "smart-MedicationDispense-728",
                "medicationCodeableConcept": {
                    "coding": [
                        {
                            "code": "859749",
                            "display": "rosuvastatin 10 MG Oral Tablet [Crestor]",
                            "system": "http://www.nlm.nih.gov/research/umls/rxnorm"
                        }
                    ],
                    "text": "rosuvastatin 10 MG Oral Tablet [Crestor]"
                },
                "quantity": {
                    "code": "{tablets}",
                    "system": "http://unitsofmeasure.org",
                    "unit": "tablets",
                    "value": 30
                },
                "resourceType": "MedicationDispense",
                "status": "completed",
                "subject": {
                    "reference": "Patient/smart-1685497"
                },
                "text": {
                    "div": "<div xmlns=\"http://www.w3.org/1999/xhtml\">Dispensed 30 tablets = 30 day supply of rosuvastatin 10 MG Oral Tablet [Crestor]</div>",
                    "status": "generated"
                },
                "whenHandedOver": "2005-01-24",
                "meta": {
                    "tag": [
                        {
                            "system": "https://smarthealthit.org/tags",
                            "code": "smart-7-2017"
                        }
                    ]
                }
            },
            "fullUrl": "/MedicationDispense/smart-MedicationDispense-728"
        },
        {
            "request": {
                "method": "PUT",
                "url": "MedicationDispense/smart-MedicationDispense-729"
            },
            "resource": {
                "authorizingPrescription": {
                    "reference": "MedicationRequest/smart-MedicationRequest-195"
                },
                "daysSupply": {
                    "code": "d",
                    "system": "http://unitsofmeasure.org",
                    "unit": "days",
                    "value": 30
                },
                "id": "smart-MedicationDispense-729",
                "medicationCodeableConcept": {
                    "coding": [
                        {
                            "code": "859749",
                            "display": "rosuvastatin 10 MG Oral Tablet [Crestor]",
                            "system": "http://www.nlm.nih.gov/research/umls/rxnorm"
                        }
                    ],
                    "text": "rosuvastatin 10 MG Oral Tablet [Crestor]"
                },
                "quantity": {
                    "code": "{tablets}",
                    "system": "http://unitsofmeasure.org",
                    "unit": "tablets",
                    "value": 30
                },
                "resourceType": "MedicationDispense",
                "status": "completed",
                "subject": {
                    "reference": "Patient/smart-1685497"
                },
                "text": {
                    "div": "<div xmlns=\"http://www.w3.org/1999/xhtml\">Dispensed 30 tablets = 30 day supply of rosuvastatin 10 MG Oral Tablet [Crestor]</div>",
                    "status": "generated"
                },
                "whenHandedOver": "2005-02-24",
                "meta": {
                    "tag": [
                        {
                            "system": "https://smarthealthit.org/tags",
                            "code": "smart-7-2017"
                        }
                    ]
                }
            },
            "fullUrl": "/MedicationDispense/smart-MedicationDispense-729"
        },
        {
            "request": {
                "method": "PUT",
                "url": "MedicationDispense/smart-MedicationDispense-731"
            },
            "resource": {
                "authorizingPrescription": {
                    "reference": "MedicationRequest/smart-MedicationRequest-195"
                },
                "daysSupply": {
                    "code": "d",
                    "system": "http://unitsofmeasure.org",
                    "unit": "days",
                    "value": 30
                },
                "id": "smart-MedicationDispense-731",
                "medicationCodeableConcept": {
                    "coding": [
                        {
                            "code": "859749",
                            "display": "rosuvastatin 10 MG Oral Tablet [Crestor]",
                            "system": "http://www.nlm.nih.gov/research/umls/rxnorm"
                        }
                    ],
                    "text": "rosuvastatin 10 MG Oral Tablet [Crestor]"
                },
                "quantity": {
                    "code": "{tablets}",
                    "system": "http://unitsofmeasure.org",
                    "unit": "tablets",
                    "value": 30
                },
                "resourceType": "MedicationDispense",
                "status": "completed",
                "subject": {
                    "reference": "Patient/smart-1685497"
                },
                "text": {
                    "div": "<div xmlns=\"http://www.w3.org/1999/xhtml\">Dispensed 30 tablets = 30 day supply of rosuvastatin 10 MG Oral Tablet [Crestor]</div>",
                    "status": "generated"
                },
                "whenHandedOver": "2007-10-06",
                "meta": {
                    "tag": [
                        {
                            "system": "https://smarthealthit.org/tags",
                            "code": "smart-7-2017"
                        }
                    ]
                }
            },
            "fullUrl": "/MedicationDispense/smart-MedicationDispense-731"
        },
        {
            "request": {
                "method": "PUT",
                "url": "MedicationDispense/smart-MedicationDispense-730"
            },
            "resource": {
                "authorizingPrescription": {
                    "reference": "MedicationRequest/smart-MedicationRequest-195"
                },
                "daysSupply": {
                    "code": "d",
                    "system": "http://unitsofmeasure.org",
                    "unit": "days",
                    "value": 30
                },
                "id": "smart-MedicationDispense-730",
                "medicationCodeableConcept": {
                    "coding": [
                        {
                            "code": "859749",
                            "display": "rosuvastatin 10 MG Oral Tablet [Crestor]",
                            "system": "http://www.nlm.nih.gov/research/umls/rxnorm"
                        }
                    ],
                    "text": "rosuvastatin 10 MG Oral Tablet [Crestor]"
                },
                "quantity": {
                    "code": "{tablets}",
                    "system": "http://unitsofmeasure.org",
                    "unit": "tablets",
                    "value": 30
                },
                "resourceType": "MedicationDispense",
                "status": "completed",
                "subject": {
                    "reference": "Patient/smart-1685497"
                },
                "text": {
                    "div": "<div xmlns=\"http://www.w3.org/1999/xhtml\">Dispensed 30 tablets = 30 day supply of rosuvastatin 10 MG Oral Tablet [Crestor]</div>",
                    "status": "generated"
                },
                "whenHandedOver": "2005-03-26",
                "meta": {
                    "tag": [
                        {
                            "system": "https://smarthealthit.org/tags",
                            "code": "smart-7-2017"
                        }
                    ]
                }
            },
            "fullUrl": "/MedicationDispense/smart-MedicationDispense-730"
        },
        {
            "request": {
                "method": "PUT",
                "url": "MedicationRequest/smart-MedicationRequest-196"
            },
            "resource": {
                "dispenseRequest": {
                    "expectedSupplyDuration": {
                        "code": "d",
                        "system": "http://unitsofmeasure.org",
                        "unit": "days",
                        "value": 3
                    },
                    "numberOfRepeatsAllowed": 1
                },
                "dosageInstruction": [
                    {
                        "text": "taper as directed"
                    }
                ],
                "id": "smart-MedicationRequest-196",
                "intent": "order",
                "medicationCodeableConcept": {
                    "coding": [
                        {
                            "code": "762675",
                            "display": "Methylprednisolone 4 MG Oral Tablet",
                            "system": "http://www.nlm.nih.gov/research/umls/rxnorm"
                        }
                    ],
                    "text": "Methylprednisolone 4 MG Oral Tablet"
                },
                "resourceType": "MedicationRequest",
                "status": "active",
                "subject": {
                    "reference": "Patient/smart-1685497"
                },
                "text": {
                    "div": "<div xmlns=\"http://www.w3.org/1999/xhtml\">Methylprednisolone 4 MG Oral Tablet (rxnorm: 762675)</div>",
                    "status": "generated"
                },
                "meta": {
                    "tag": [
                        {
                            "system": "https://smarthealthit.org/tags",
                            "code": "smart-7-2017"
                        }
                    ]
                }
            },
            "fullUrl": "/MedicationRequest/smart-MedicationRequest-196"
        },
        {
            "request": {
                "method": "PUT",
                "url": "MedicationRequest/smart-MedicationRequest-197"
            },
            "resource": {
                "dispenseRequest": {
                    "expectedSupplyDuration": {
                        "code": "d",
                        "system": "http://unitsofmeasure.org",
                        "unit": "days",
                        "value": 30
                    },
                    "numberOfRepeatsAllowed": 1,
                    "quantity": {
                        "code": "{tablet}",
                        "system": "http://unitsofmeasure.org",
                        "unit": "{tablet}",
                        "value": 90
                    }
                },
                "dosageInstruction": [
                    {
                        "asNeededBoolean": true,
                        "doseQuantity": {
                            "code": "{tablet}",
                            "system": "http://unitsofmeasure.org",
                            "unit": "{tablet}",
                            "value": 1
                        },
                        "text": "1 tid prn",
                        "timing": {
                            "repeat": {
                                "boundsPeriod": {
                                    "start": "2005-08-20"
                                },
                                "frequency": 3,
                                "period": 1,
                                "periodUnit": "d"
                            }
                        }
                    }
                ],
                "id": "smart-MedicationRequest-197",
                "intent": "order",
                "medicationCodeableConcept": {
                    "coding": [
                        {
                            "code": "828348",
                            "display": "Cyclobenzaprine hydrochloride 10 MG Oral Tablet",
                            "system": "http://www.nlm.nih.gov/research/umls/rxnorm"
                        }
                    ],
                    "text": "Cyclobenzaprine hydrochloride 10 MG Oral Tablet"
                },
                "resourceType": "MedicationRequest",
                "status": "active",
                "subject": {
                    "reference": "Patient/smart-1685497"
                },
                "text": {
                    "div": "<div xmlns=\"http://www.w3.org/1999/xhtml\">Cyclobenzaprine hydrochloride 10 MG Oral Tablet (rxnorm: 828348)</div>",
                    "status": "generated"
                },
                "meta": {
                    "tag": [
                        {
                            "system": "https://smarthealthit.org/tags",
                            "code": "smart-7-2017"
                        }
                    ]
                }
            },
            "fullUrl": "/MedicationRequest/smart-MedicationRequest-197"
        },
        {
            "request": {
                "method": "PUT",
                "url": "MedicationDispense/smart-MedicationDispense-716"
            },
            "resource": {
                "authorizingPrescription": {
                    "reference": "MedicationRequest/smart-MedicationRequest-197"
                },
                "daysSupply": {
                    "code": "d",
                    "system": "http://unitsofmeasure.org",
                    "unit": "days",
                    "value": 30
                },
                "id": "smart-MedicationDispense-716",
                "medicationCodeableConcept": {
                    "coding": [
                        {
                            "code": "828348",
                            "display": "Cyclobenzaprine hydrochloride 10 MG Oral Tablet",
                            "system": "http://www.nlm.nih.gov/research/umls/rxnorm"
                        }
                    ],
                    "text": "Cyclobenzaprine hydrochloride 10 MG Oral Tablet"
                },
                "quantity": {
                    "code": "{tablets}",
                    "system": "http://unitsofmeasure.org",
                    "unit": "tablets",
                    "value": 90
                },
                "resourceType": "MedicationDispense",
                "status": "completed",
                "subject": {
                    "reference": "Patient/smart-1685497"
                },
                "text": {
                    "div": "<div xmlns=\"http://www.w3.org/1999/xhtml\">Dispensed 90 tablets = 30 day supply of Cyclobenzaprine hydrochloride 10 MG Oral Tablet</div>",
                    "status": "generated"
                },
                "whenHandedOver": "2005-08-20",
                "meta": {
                    "tag": [
                        {
                            "system": "https://smarthealthit.org/tags",
                            "code": "smart-7-2017"
                        }
                    ]
                }
            },
            "fullUrl": "/MedicationDispense/smart-MedicationDispense-716"
        },
        {
            "request": {
                "method": "PUT",
                "url": "MedicationRequest/smart-MedicationRequest-198"
            },
            "resource": {
                "dispenseRequest": {
                    "expectedSupplyDuration": {
                        "code": "d",
                        "system": "http://unitsofmeasure.org",
                        "unit": "days",
                        "value": 30
                    },
                    "numberOfRepeatsAllowed": 1,
                    "quantity": {
                        "code": "{tablet}",
                        "system": "http://unitsofmeasure.org",
                        "unit": "{tablet}",
                        "value": 30
                    }
                },
                "dosageInstruction": [
                    {
                        "doseQuantity": {
                            "code": "{tablet}",
                            "system": "http://unitsofmeasure.org",
                            "unit": "{tablet}",
                            "value": 1
                        },
                        "text": "1 qhs",
                        "timing": {
                            "repeat": {
                                "boundsPeriod": {
                                    "start": "2005-09-10"
                                },
                                "frequency": 1,
                                "period": 1,
                                "periodUnit": "d"
                            }
                        }
                    }
                ],
                "id": "smart-MedicationRequest-198",
                "intent": "order",
                "medicationCodeableConcept": {
                    "coding": [
                        {
                            "code": "859753",
                            "display": "rosuvastatin 20 MG Oral Tablet [Crestor]",
                            "system": "http://www.nlm.nih.gov/research/umls/rxnorm"
                        }
                    ],
                    "text": "rosuvastatin 20 MG Oral Tablet [Crestor]"
                },
                "resourceType": "MedicationRequest",
                "status": "active",
                "subject": {
                    "reference": "Patient/smart-1685497"
                },
                "text": {
                    "div": "<div xmlns=\"http://www.w3.org/1999/xhtml\">rosuvastatin 20 MG Oral Tablet [Crestor] (rxnorm: 859753)</div>",
                    "status": "generated"
                },
                "meta": {
                    "tag": [
                        {
                            "system": "https://smarthealthit.org/tags",
                            "code": "smart-7-2017"
                        }
                    ]
                }
            },
            "fullUrl": "/MedicationRequest/smart-MedicationRequest-198"
        },
        {
            "request": {
                "method": "PUT",
                "url": "MedicationDispense/smart-MedicationDispense-718"
            },
            "resource": {
                "authorizingPrescription": {
                    "reference": "MedicationRequest/smart-MedicationRequest-198"
                },
                "daysSupply": {
                    "code": "d",
                    "system": "http://unitsofmeasure.org",
                    "unit": "days",
                    "value": 30
                },
                "id": "smart-MedicationDispense-718",
                "medicationCodeableConcept": {
                    "coding": [
                        {
                            "code": "859753",
                            "display": "rosuvastatin 20 MG Oral Tablet [Crestor]",
                            "system": "http://www.nlm.nih.gov/research/umls/rxnorm"
                        }
                    ],
                    "text": "rosuvastatin 20 MG Oral Tablet [Crestor]"
                },
                "quantity": {
                    "code": "{tablets}",
                    "system": "http://unitsofmeasure.org",
                    "unit": "tablets",
                    "value": 30
                },
                "resourceType": "MedicationDispense",
                "status": "completed",
                "subject": {
                    "reference": "Patient/smart-1685497"
                },
                "text": {
                    "div": "<div xmlns=\"http://www.w3.org/1999/xhtml\">Dispensed 30 tablets = 30 day supply of rosuvastatin 20 MG Oral Tablet [Crestor]</div>",
                    "status": "generated"
                },
                "whenHandedOver": "2005-10-23",
                "meta": {
                    "tag": [
                        {
                            "system": "https://smarthealthit.org/tags",
                            "code": "smart-7-2017"
                        }
                    ]
                }
            },
            "fullUrl": "/MedicationDispense/smart-MedicationDispense-718"
        },
        {
            "request": {
                "method": "PUT",
                "url": "MedicationDispense/smart-MedicationDispense-727"
            },
            "resource": {
                "authorizingPrescription": {
                    "reference": "MedicationRequest/smart-MedicationRequest-198"
                },
                "daysSupply": {
                    "code": "d",
                    "system": "http://unitsofmeasure.org",
                    "unit": "days",
                    "value": 30
                },
                "id": "smart-MedicationDispense-727",
                "medicationCodeableConcept": {
                    "coding": [
                        {
                            "code": "859753",
                            "display": "rosuvastatin 20 MG Oral Tablet [Crestor]",
                            "system": "http://www.nlm.nih.gov/research/umls/rxnorm"
                        }
                    ],
                    "text": "rosuvastatin 20 MG Oral Tablet [Crestor]"
                },
                "quantity": {
                    "code": "{tablets}",
                    "system": "http://unitsofmeasure.org",
                    "unit": "tablets",
                    "value": 30
                },
                "resourceType": "MedicationDispense",
                "status": "completed",
                "subject": {
                    "reference": "Patient/smart-1685497"
                },
                "text": {
                    "div": "<div xmlns=\"http://www.w3.org/1999/xhtml\">Dispensed 30 tablets = 30 day supply of rosuvastatin 20 MG Oral Tablet [Crestor]</div>",
                    "status": "generated"
                },
                "whenHandedOver": "2007-09-02",
                "meta": {
                    "tag": [
                        {
                            "system": "https://smarthealthit.org/tags",
                            "code": "smart-7-2017"
                        }
                    ]
                }
            },
            "fullUrl": "/MedicationDispense/smart-MedicationDispense-727"
        },
        {
            "request": {
                "method": "PUT",
                "url": "MedicationDispense/smart-MedicationDispense-723"
            },
            "resource": {
                "authorizingPrescription": {
                    "reference": "MedicationRequest/smart-MedicationRequest-198"
                },
                "daysSupply": {
                    "code": "d",
                    "system": "http://unitsofmeasure.org",
                    "unit": "days",
                    "value": 30
                },
                "id": "smart-MedicationDispense-723",
                "medicationCodeableConcept": {
                    "coding": [
                        {
                            "code": "859753",
                            "display": "rosuvastatin 20 MG Oral Tablet [Crestor]",
                            "system": "http://www.nlm.nih.gov/research/umls/rxnorm"
                        }
                    ],
                    "text": "rosuvastatin 20 MG Oral Tablet [Crestor]"
                },
                "quantity": {
                    "code": "{tablets}",
                    "system": "http://unitsofmeasure.org",
                    "unit": "tablets",
                    "value": 30
                },
                "resourceType": "MedicationDispense",
                "status": "completed",
                "subject": {
                    "reference": "Patient/smart-1685497"
                },
                "text": {
                    "div": "<div xmlns=\"http://www.w3.org/1999/xhtml\">Dispensed 30 tablets = 30 day supply of rosuvastatin 20 MG Oral Tablet [Crestor]</div>",
                    "status": "generated"
                },
                "whenHandedOver": "2007-03-29",
                "meta": {
                    "tag": [
                        {
                            "system": "https://smarthealthit.org/tags",
                            "code": "smart-7-2017"
                        }
                    ]
                }
            },
            "fullUrl": "/MedicationDispense/smart-MedicationDispense-723"
        },
        {
            "request": {
                "method": "PUT",
                "url": "MedicationDispense/smart-MedicationDispense-720"
            },
            "resource": {
                "authorizingPrescription": {
                    "reference": "MedicationRequest/smart-MedicationRequest-198"
                },
                "daysSupply": {
                    "code": "d",
                    "system": "http://unitsofmeasure.org",
                    "unit": "days",
                    "value": 30
                },
                "id": "smart-MedicationDispense-720",
                "medicationCodeableConcept": {
                    "coding": [
                        {
                            "code": "859753",
                            "display": "rosuvastatin 20 MG Oral Tablet [Crestor]",
                            "system": "http://www.nlm.nih.gov/research/umls/rxnorm"
                        }
                    ],
                    "text": "rosuvastatin 20 MG Oral Tablet [Crestor]"
                },
                "quantity": {
                    "code": "{tablets}",
                    "system": "http://unitsofmeasure.org",
                    "unit": "tablets",
                    "value": 30
                },
                "resourceType": "MedicationDispense",
                "status": "completed",
                "subject": {
                    "reference": "Patient/smart-1685497"
                },
                "text": {
                    "div": "<div xmlns=\"http://www.w3.org/1999/xhtml\">Dispensed 30 tablets = 30 day supply of rosuvastatin 20 MG Oral Tablet [Crestor]</div>",
                    "status": "generated"
                },
                "whenHandedOver": "2006-11-15",
                "meta": {
                    "tag": [
                        {
                            "system": "https://smarthealthit.org/tags",
                            "code": "smart-7-2017"
                        }
                    ]
                }
            },
            "fullUrl": "/MedicationDispense/smart-MedicationDispense-720"
        },
        {
            "request": {
                "method": "PUT",
                "url": "MedicationDispense/smart-MedicationDispense-717"
            },
            "resource": {
                "authorizingPrescription": {
                    "reference": "MedicationRequest/smart-MedicationRequest-198"
                },
                "daysSupply": {
                    "code": "d",
                    "system": "http://unitsofmeasure.org",
                    "unit": "days",
                    "value": 30
                },
                "id": "smart-MedicationDispense-717",
                "medicationCodeableConcept": {
                    "coding": [
                        {
                            "code": "859753",
                            "display": "rosuvastatin 20 MG Oral Tablet [Crestor]",
                            "system": "http://www.nlm.nih.gov/research/umls/rxnorm"
                        }
                    ],
                    "text": "rosuvastatin 20 MG Oral Tablet [Crestor]"
                },
                "quantity": {
                    "code": "{tablets}",
                    "system": "http://unitsofmeasure.org",
                    "unit": "tablets",
                    "value": 30
                },
                "resourceType": "MedicationDispense",
                "status": "completed",
                "subject": {
                    "reference": "Patient/smart-1685497"
                },
                "text": {
                    "div": "<div xmlns=\"http://www.w3.org/1999/xhtml\">Dispensed 30 tablets = 30 day supply of rosuvastatin 20 MG Oral Tablet [Crestor]</div>",
                    "status": "generated"
                },
                "whenHandedOver": "2005-09-10",
                "meta": {
                    "tag": [
                        {
                            "system": "https://smarthealthit.org/tags",
                            "code": "smart-7-2017"
                        }
                    ]
                }
            },
            "fullUrl": "/MedicationDispense/smart-MedicationDispense-717"
        },
        {
            "request": {
                "method": "PUT",
                "url": "MedicationDispense/smart-MedicationDispense-726"
            },
            "resource": {
                "authorizingPrescription": {
                    "reference": "MedicationRequest/smart-MedicationRequest-198"
                },
                "daysSupply": {
                    "code": "d",
                    "system": "http://unitsofmeasure.org",
                    "unit": "days",
                    "value": 30
                },
                "id": "smart-MedicationDispense-726",
                "medicationCodeableConcept": {
                    "coding": [
                        {
                            "code": "859753",
                            "display": "rosuvastatin 20 MG Oral Tablet [Crestor]",
                            "system": "http://www.nlm.nih.gov/research/umls/rxnorm"
                        }
                    ],
                    "text": "rosuvastatin 20 MG Oral Tablet [Crestor]"
                },
                "quantity": {
                    "code": "{tablets}",
                    "system": "http://unitsofmeasure.org",
                    "unit": "tablets",
                    "value": 30
                },
                "resourceType": "MedicationDispense",
                "status": "completed",
                "subject": {
                    "reference": "Patient/smart-1685497"
                },
                "text": {
                    "div": "<div xmlns=\"http://www.w3.org/1999/xhtml\">Dispensed 30 tablets = 30 day supply of rosuvastatin 20 MG Oral Tablet [Crestor]</div>",
                    "status": "generated"
                },
                "whenHandedOver": "2007-08-03",
                "meta": {
                    "tag": [
                        {
                            "system": "https://smarthealthit.org/tags",
                            "code": "smart-7-2017"
                        }
                    ]
                }
            },
            "fullUrl": "/MedicationDispense/smart-MedicationDispense-726"
        },
        {
            "request": {
                "method": "PUT",
                "url": "MedicationDispense/smart-MedicationDispense-725"
            },
            "resource": {
                "authorizingPrescription": {
                    "reference": "MedicationRequest/smart-MedicationRequest-198"
                },
                "daysSupply": {
                    "code": "d",
                    "system": "http://unitsofmeasure.org",
                    "unit": "days",
                    "value": 30
                },
                "id": "smart-MedicationDispense-725",
                "medicationCodeableConcept": {
                    "coding": [
                        {
                            "code": "859753",
                            "display": "rosuvastatin 20 MG Oral Tablet [Crestor]",
                            "system": "http://www.nlm.nih.gov/research/umls/rxnorm"
                        }
                    ],
                    "text": "rosuvastatin 20 MG Oral Tablet [Crestor]"
                },
                "quantity": {
                    "code": "{tablets}",
                    "system": "http://unitsofmeasure.org",
                    "unit": "tablets",
                    "value": 30
                },
                "resourceType": "MedicationDispense",
                "status": "completed",
                "subject": {
                    "reference": "Patient/smart-1685497"
                },
                "text": {
                    "div": "<div xmlns=\"http://www.w3.org/1999/xhtml\">Dispensed 30 tablets = 30 day supply of rosuvastatin 20 MG Oral Tablet [Crestor]</div>",
                    "status": "generated"
                },
                "whenHandedOver": "2007-06-30",
                "meta": {
                    "tag": [
                        {
                            "system": "https://smarthealthit.org/tags",
                            "code": "smart-7-2017"
                        }
                    ]
                }
            },
            "fullUrl": "/MedicationDispense/smart-MedicationDispense-725"
        },
        {
            "request": {
                "method": "PUT",
                "url": "MedicationDispense/smart-MedicationDispense-721"
            },
            "resource": {
                "authorizingPrescription": {
                    "reference": "MedicationRequest/smart-MedicationRequest-198"
                },
                "daysSupply": {
                    "code": "d",
                    "system": "http://unitsofmeasure.org",
                    "unit": "days",
                    "value": 30
                },
                "id": "smart-MedicationDispense-721",
                "medicationCodeableConcept": {
                    "coding": [
                        {
                            "code": "859753",
                            "display": "rosuvastatin 20 MG Oral Tablet [Crestor]",
                            "system": "http://www.nlm.nih.gov/research/umls/rxnorm"
                        }
                    ],
                    "text": "rosuvastatin 20 MG Oral Tablet [Crestor]"
                },
                "quantity": {
                    "code": "{tablets}",
                    "system": "http://unitsofmeasure.org",
                    "unit": "tablets",
                    "value": 30
                },
                "resourceType": "MedicationDispense",
                "status": "completed",
                "subject": {
                    "reference": "Patient/smart-1685497"
                },
                "text": {
                    "div": "<div xmlns=\"http://www.w3.org/1999/xhtml\">Dispensed 30 tablets = 30 day supply of rosuvastatin 20 MG Oral Tablet [Crestor]</div>",
                    "status": "generated"
                },
                "whenHandedOver": "2006-12-19",
                "meta": {
                    "tag": [
                        {
                            "system": "https://smarthealthit.org/tags",
                            "code": "smart-7-2017"
                        }
                    ]
                }
            },
            "fullUrl": "/MedicationDispense/smart-MedicationDispense-721"
        },
        {
            "request": {
                "method": "PUT",
                "url": "MedicationDispense/smart-MedicationDispense-724"
            },
            "resource": {
                "authorizingPrescription": {
                    "reference": "MedicationRequest/smart-MedicationRequest-198"
                },
                "daysSupply": {
                    "code": "d",
                    "system": "http://unitsofmeasure.org",
                    "unit": "days",
                    "value": 30
                },
                "id": "smart-MedicationDispense-724",
                "medicationCodeableConcept": {
                    "coding": [
                        {
                            "code": "859753",
                            "display": "rosuvastatin 20 MG Oral Tablet [Crestor]",
                            "system": "http://www.nlm.nih.gov/research/umls/rxnorm"
                        }
                    ],
                    "text": "rosuvastatin 20 MG Oral Tablet [Crestor]"
                },
                "quantity": {
                    "code": "{tablets}",
                    "system": "http://unitsofmeasure.org",
                    "unit": "tablets",
                    "value": 30
                },
                "resourceType": "MedicationDispense",
                "status": "completed",
                "subject": {
                    "reference": "Patient/smart-1685497"
                },
                "text": {
                    "div": "<div xmlns=\"http://www.w3.org/1999/xhtml\">Dispensed 30 tablets = 30 day supply of rosuvastatin 20 MG Oral Tablet [Crestor]</div>",
                    "status": "generated"
                },
                "whenHandedOver": "2007-05-13",
                "meta": {
                    "tag": [
                        {
                            "system": "https://smarthealthit.org/tags",
                            "code": "smart-7-2017"
                        }
                    ]
                }
            },
            "fullUrl": "/MedicationDispense/smart-MedicationDispense-724"
        },
        {
            "request": {
                "method": "PUT",
                "url": "MedicationDispense/smart-MedicationDispense-722"
            },
            "resource": {
                "authorizingPrescription": {
                    "reference": "MedicationRequest/smart-MedicationRequest-198"
                },
                "daysSupply": {
                    "code": "d",
                    "system": "http://unitsofmeasure.org",
                    "unit": "days",
                    "value": 30
                },
                "id": "smart-MedicationDispense-722",
                "medicationCodeableConcept": {
                    "coding": [
                        {
                            "code": "859753",
                            "display": "rosuvastatin 20 MG Oral Tablet [Crestor]",
                            "system": "http://www.nlm.nih.gov/research/umls/rxnorm"
                        }
                    ],
                    "text": "rosuvastatin 20 MG Oral Tablet [Crestor]"
                },
                "quantity": {
                    "code": "{tablets}",
                    "system": "http://unitsofmeasure.org",
                    "unit": "tablets",
                    "value": 30
                },
                "resourceType": "MedicationDispense",
                "status": "completed",
                "subject": {
                    "reference": "Patient/smart-1685497"
                },
                "text": {
                    "div": "<div xmlns=\"http://www.w3.org/1999/xhtml\">Dispensed 30 tablets = 30 day supply of rosuvastatin 20 MG Oral Tablet [Crestor]</div>",
                    "status": "generated"
                },
                "whenHandedOver": "2007-03-05",
                "meta": {
                    "tag": [
                        {
                            "system": "https://smarthealthit.org/tags",
                            "code": "smart-7-2017"
                        }
                    ]
                }
            },
            "fullUrl": "/MedicationDispense/smart-MedicationDispense-722"
        },
        {
            "request": {
                "method": "PUT",
                "url": "MedicationDispense/smart-MedicationDispense-719"
            },
            "resource": {
                "authorizingPrescription": {
                    "reference": "MedicationRequest/smart-MedicationRequest-198"
                },
                "daysSupply": {
                    "code": "d",
                    "system": "http://unitsofmeasure.org",
                    "unit": "days",
                    "value": 30
                },
                "id": "smart-MedicationDispense-719",
                "medicationCodeableConcept": {
                    "coding": [
                        {
                            "code": "859753",
                            "display": "rosuvastatin 20 MG Oral Tablet [Crestor]",
                            "system": "http://www.nlm.nih.gov/research/umls/rxnorm"
                        }
                    ],
                    "text": "rosuvastatin 20 MG Oral Tablet [Crestor]"
                },
                "quantity": {
                    "code": "{tablets}",
                    "system": "http://unitsofmeasure.org",
                    "unit": "tablets",
                    "value": 30
                },
                "resourceType": "MedicationDispense",
                "status": "completed",
                "subject": {
                    "reference": "Patient/smart-1685497"
                },
                "text": {
                    "div": "<div xmlns=\"http://www.w3.org/1999/xhtml\">Dispensed 30 tablets = 30 day supply of rosuvastatin 20 MG Oral Tablet [Crestor]</div>",
                    "status": "generated"
                },
                "whenHandedOver": "2006-10-09",
                "meta": {
                    "tag": [
                        {
                            "system": "https://smarthealthit.org/tags",
                            "code": "smart-7-2017"
                        }
                    ]
                }
            },
            "fullUrl": "/MedicationDispense/smart-MedicationDispense-719"
        },
        {
            "request": {
                "method": "PUT",
                "url": "MedicationRequest/smart-MedicationRequest-199"
            },
            "resource": {
                "dispenseRequest": {
                    "expectedSupplyDuration": {
                        "code": "d",
                        "system": "http://unitsofmeasure.org",
                        "unit": "days",
                        "value": 30
                    },
                    "numberOfRepeatsAllowed": 1,
                    "quantity": {
                        "code": "{tablet}",
                        "system": "http://unitsofmeasure.org",
                        "unit": "{tablet}",
                        "value": 30
                    }
                },
                "dosageInstruction": [
                    {
                        "asNeededBoolean": true,
                        "doseQuantity": {
                            "code": "{tablet}",
                            "system": "http://unitsofmeasure.org",
                            "unit": "{tablet}",
                            "value": 1
                        },
                        "text": "1 qhs prn insomnia",
                        "timing": {
                            "repeat": {
                                "boundsPeriod": {
                                    "start": "2007-03-29"
                                },
                                "frequency": 1,
                                "period": 1,
                                "periodUnit": "d"
                            }
                        }
                    }
                ],
                "id": "smart-MedicationRequest-199",
                "intent": "order",
                "medicationCodeableConcept": {
                    "coding": [
                        {
                            "code": "854873",
                            "display": "zolpidem 10 MG Oral Tablet",
                            "system": "http://www.nlm.nih.gov/research/umls/rxnorm"
                        }
                    ],
                    "text": "zolpidem 10 MG Oral Tablet"
                },
                "resourceType": "MedicationRequest",
                "status": "active",
                "subject": {
                    "reference": "Patient/smart-1685497"
                },
                "text": {
                    "div": "<div xmlns=\"http://www.w3.org/1999/xhtml\">zolpidem 10 MG Oral Tablet (rxnorm: 854873)</div>",
                    "status": "generated"
                },
                "meta": {
                    "tag": [
                        {
                            "system": "https://smarthealthit.org/tags",
                            "code": "smart-7-2017"
                        }
                    ]
                }
            },
            "fullUrl": "/MedicationRequest/smart-MedicationRequest-199"
        },
        {
            "request": {
                "method": "PUT",
                "url": "MedicationDispense/smart-MedicationDispense-732"
            },
            "resource": {
                "authorizingPrescription": {
                    "reference": "MedicationRequest/smart-MedicationRequest-199"
                },
                "daysSupply": {
                    "code": "d",
                    "system": "http://unitsofmeasure.org",
                    "unit": "days",
                    "value": 30
                },
                "id": "smart-MedicationDispense-732",
                "medicationCodeableConcept": {
                    "coding": [
                        {
                            "code": "854873",
                            "display": "zolpidem 10 MG Oral Tablet",
                            "system": "http://www.nlm.nih.gov/research/umls/rxnorm"
                        }
                    ],
                    "text": "zolpidem 10 MG Oral Tablet"
                },
                "quantity": {
                    "code": "{tablets}",
                    "system": "http://unitsofmeasure.org",
                    "unit": "tablets",
                    "value": 30
                },
                "resourceType": "MedicationDispense",
                "status": "completed",
                "subject": {
                    "reference": "Patient/smart-1685497"
                },
                "text": {
                    "div": "<div xmlns=\"http://www.w3.org/1999/xhtml\">Dispensed 30 tablets = 30 day supply of zolpidem 10 MG Oral Tablet</div>",
                    "status": "generated"
                },
                "whenHandedOver": "2007-03-29",
                "meta": {
                    "tag": [
                        {
                            "system": "https://smarthealthit.org/tags",
                            "code": "smart-7-2017"
                        }
                    ]
                }
            },
            "fullUrl": "/MedicationDispense/smart-MedicationDispense-732"
        },
        {
            "request": {
                "method": "PUT",
                "url": "MedicationDispense/smart-MedicationDispense-733"
            },
            "resource": {
                "authorizingPrescription": {
                    "reference": "MedicationRequest/smart-MedicationRequest-199"
                },
                "daysSupply": {
                    "code": "d",
                    "system": "http://unitsofmeasure.org",
                    "unit": "days",
                    "value": 30
                },
                "id": "smart-MedicationDispense-733",
                "medicationCodeableConcept": {
                    "coding": [
                        {
                            "code": "854873",
                            "display": "zolpidem 10 MG Oral Tablet",
                            "system": "http://www.nlm.nih.gov/research/umls/rxnorm"
                        }
                    ],
                    "text": "zolpidem 10 MG Oral Tablet"
                },
                "quantity": {
                    "code": "{tablets}",
                    "system": "http://unitsofmeasure.org",
                    "unit": "tablets",
                    "value": 30
                },
                "resourceType": "MedicationDispense",
                "status": "completed",
                "subject": {
                    "reference": "Patient/smart-1685497"
                },
                "text": {
                    "div": "<div xmlns=\"http://www.w3.org/1999/xhtml\">Dispensed 30 tablets = 30 day supply of zolpidem 10 MG Oral Tablet</div>",
                    "status": "generated"
                },
                "whenHandedOver": "2007-05-13",
                "meta": {
                    "tag": [
                        {
                            "system": "https://smarthealthit.org/tags",
                            "code": "smart-7-2017"
                        }
                    ]
                }
            },
            "fullUrl": "/MedicationDispense/smart-MedicationDispense-733"
        },
        {
            "request": {
                "method": "PUT",
                "url": "Condition/smart-Condition-351"
            },
            "resource": {
                "clinicalStatus": "active",
                "code": {
                    "coding": [
                        {
                            "code": "29857009",
                            "display": "Chest pain",
                            "system": "http://snomed.info/sct"
                        }
                    ],
                    "text": "Chest pain"
                },
                "id": "smart-Condition-351",
                "onsetDateTime": "2003-11-10",
                "resourceType": "Condition",
                "subject": {
                    "reference": "Patient/smart-1685497"
                },
                "text": {
                    "div": "<div xmlns=\"http://www.w3.org/1999/xhtml\">Chest pain</div>",
                    "status": "generated"
                },
                "verificationStatus": "confirmed",
                "meta": {
                    "tag": [
                        {
                            "system": "https://smarthealthit.org/tags",
                            "code": "smart-7-2017"
                        }
                    ]
                }
            },
            "fullUrl": "/Condition/smart-Condition-351"
        },
        {
            "request": {
                "method": "PUT",
                "url": "Condition/smart-Condition-352"
            },
            "resource": {
                "clinicalStatus": "active",
                "code": {
                    "coding": [
                        {
                            "code": "102589003",
                            "display": "Chest pain",
                            "system": "http://snomed.info/sct"
                        }
                    ],
                    "text": "Chest pain"
                },
                "id": "smart-Condition-352",
                "onsetDateTime": "2003-11-10",
                "resourceType": "Condition",
                "subject": {
                    "reference": "Patient/smart-1685497"
                },
                "text": {
                    "div": "<div xmlns=\"http://www.w3.org/1999/xhtml\">Chest pain</div>",
                    "status": "generated"
                },
                "verificationStatus": "confirmed",
                "meta": {
                    "tag": [
                        {
                            "system": "https://smarthealthit.org/tags",
                            "code": "smart-7-2017"
                        }
                    ]
                }
            },
            "fullUrl": "/Condition/smart-Condition-352"
        },
        {
            "request": {
                "method": "PUT",
                "url": "Condition/smart-Condition-353"
            },
            "resource": {
                "clinicalStatus": "active",
                "code": {
                    "coding": [
                        {
                            "code": "79922009",
                            "display": "Epigastric pain",
                            "system": "http://snomed.info/sct"
                        }
                    ],
                    "text": "Epigastric pain"
                },
                "id": "smart-Condition-353",
                "onsetDateTime": "2003-11-10",
                "resourceType": "Condition",
                "subject": {
                    "reference": "Patient/smart-1685497"
                },
                "text": {
                    "div": "<div xmlns=\"http://www.w3.org/1999/xhtml\">Epigastric pain</div>",
                    "status": "generated"
                },
                "verificationStatus": "confirmed",
                "meta": {
                    "tag": [
                        {
                            "system": "https://smarthealthit.org/tags",
                            "code": "smart-7-2017"
                        }
                    ]
                }
            },
            "fullUrl": "/Condition/smart-Condition-353"
        },
        {
            "request": {
                "method": "PUT",
                "url": "Condition/smart-Condition-354"
            },
            "resource": {
                "clinicalStatus": "active",
                "code": {
                    "coding": [
                        {
                            "code": "297242006",
                            "display": "FH: Cardiac disorder",
                            "system": "http://snomed.info/sct"
                        }
                    ],
                    "text": "FH: Cardiac disorder"
                },
                "id": "smart-Condition-354",
                "onsetDateTime": "2003-11-10",
                "resourceType": "Condition",
                "subject": {
                    "reference": "Patient/smart-1685497"
                },
                "text": {
                    "div": "<div xmlns=\"http://www.w3.org/1999/xhtml\">FH: Cardiac disorder</div>",
                    "status": "generated"
                },
                "verificationStatus": "confirmed",
                "meta": {
                    "tag": [
                        {
                            "system": "https://smarthealthit.org/tags",
                            "code": "smart-7-2017"
                        }
                    ]
                }
            },
            "fullUrl": "/Condition/smart-Condition-354"
        },
        {
            "request": {
                "method": "PUT",
                "url": "Condition/smart-Condition-355"
            },
            "resource": {
                "clinicalStatus": "active",
                "code": {
                    "coding": [
                        {
                            "code": "386661006",
                            "display": "Fever and other physiologic disturbances of temperature regulation",
                            "system": "http://snomed.info/sct"
                        }
                    ],
                    "text": "Fever and other physiologic disturbances of temperature regulation"
                },
                "id": "smart-Condition-355",
                "onsetDateTime": "2003-11-10",
                "resourceType": "Condition",
                "subject": {
                    "reference": "Patient/smart-1685497"
                },
                "text": {
                    "div": "<div xmlns=\"http://www.w3.org/1999/xhtml\">Fever and other physiologic disturbances of temperature regulation</div>",
                    "status": "generated"
                },
                "verificationStatus": "confirmed",
                "meta": {
                    "tag": [
                        {
                            "system": "https://smarthealthit.org/tags",
                            "code": "smart-7-2017"
                        }
                    ]
                }
            },
            "fullUrl": "/Condition/smart-Condition-355"
        },
        {
            "request": {
                "method": "PUT",
                "url": "Condition/smart-Condition-356"
            },
            "resource": {
                "clinicalStatus": "active",
                "code": {
                    "coding": [
                        {
                            "code": "57643001",
                            "display": "Gastro-esophageal reflux disease with esophagitis",
                            "system": "http://snomed.info/sct"
                        }
                    ],
                    "text": "Gastro-esophageal reflux disease with esophagitis"
                },
                "id": "smart-Condition-356",
                "onsetDateTime": "2003-11-10",
                "resourceType": "Condition",
                "subject": {
                    "reference": "Patient/smart-1685497"
                },
                "text": {
                    "div": "<div xmlns=\"http://www.w3.org/1999/xhtml\">Gastro-esophageal reflux disease with esophagitis</div>",
                    "status": "generated"
                },
                "verificationStatus": "confirmed",
                "meta": {
                    "tag": [
                        {
                            "system": "https://smarthealthit.org/tags",
                            "code": "smart-7-2017"
                        }
                    ]
                }
            },
            "fullUrl": "/Condition/smart-Condition-356"
        },
        {
            "request": {
                "method": "PUT",
                "url": "Condition/smart-Condition-357"
            },
            "resource": {
                "clinicalStatus": "active",
                "code": {
                    "coding": [
                        {
                            "code": "422587007",
                            "display": "Nausea",
                            "system": "http://snomed.info/sct"
                        }
                    ],
                    "text": "Nausea"
                },
                "id": "smart-Condition-357",
                "onsetDateTime": "2003-11-10",
                "resourceType": "Condition",
                "subject": {
                    "reference": "Patient/smart-1685497"
                },
                "text": {
                    "div": "<div xmlns=\"http://www.w3.org/1999/xhtml\">Nausea</div>",
                    "status": "generated"
                },
                "verificationStatus": "confirmed",
                "meta": {
                    "tag": [
                        {
                            "system": "https://smarthealthit.org/tags",
                            "code": "smart-7-2017"
                        }
                    ]
                }
            },
            "fullUrl": "/Condition/smart-Condition-357"
        },
        {
            "request": {
                "method": "PUT",
                "url": "Condition/smart-Condition-358"
            },
            "resource": {
                "clinicalStatus": "active",
                "code": {
                    "coding": [
                        {
                            "code": "111583006",
                            "display": "White blood cell disorder",
                            "system": "http://snomed.info/sct"
                        }
                    ],
                    "text": "White blood cell disorder"
                },
                "id": "smart-Condition-358",
                "onsetDateTime": "2003-11-10",
                "resourceType": "Condition",
                "subject": {
                    "reference": "Patient/smart-1685497"
                },
                "text": {
                    "div": "<div xmlns=\"http://www.w3.org/1999/xhtml\">White blood cell disorder</div>",
                    "status": "generated"
                },
                "verificationStatus": "confirmed",
                "meta": {
                    "tag": [
                        {
                            "system": "https://smarthealthit.org/tags",
                            "code": "smart-7-2017"
                        }
                    ]
                }
            },
            "fullUrl": "/Condition/smart-Condition-358"
        },
        {
            "request": {
                "method": "PUT",
                "url": "Condition/smart-Condition-359"
            },
            "resource": {
                "clinicalStatus": "active",
                "code": {
                    "coding": [
                        {
                            "code": "38341003",
                            "display": "Essential hypertension",
                            "system": "http://snomed.info/sct"
                        }
                    ],
                    "text": "Essential hypertension"
                },
                "id": "smart-Condition-359",
                "onsetDateTime": "2003-11-18",
                "resourceType": "Condition",
                "subject": {
                    "reference": "Patient/smart-1685497"
                },
                "text": {
                    "div": "<div xmlns=\"http://www.w3.org/1999/xhtml\">Essential hypertension</div>",
                    "status": "generated"
                },
                "verificationStatus": "confirmed",
                "meta": {
                    "tag": [
                        {
                            "system": "https://smarthealthit.org/tags",
                            "code": "smart-7-2017"
                        }
                    ]
                }
            },
            "fullUrl": "/Condition/smart-Condition-359"
        },
        {
            "request": {
                "method": "PUT",
                "url": "Condition/smart-Condition-360"
            },
            "resource": {
                "clinicalStatus": "active",
                "code": {
                    "coding": [
                        {
                            "code": "237602007",
                            "display": "Metabolic syndrome X",
                            "system": "http://snomed.info/sct"
                        }
                    ],
                    "text": "Metabolic syndrome X"
                },
                "id": "smart-Condition-360",
                "onsetDateTime": "2003-11-18",
                "resourceType": "Condition",
                "subject": {
                    "reference": "Patient/smart-1685497"
                },
                "text": {
                    "div": "<div xmlns=\"http://www.w3.org/1999/xhtml\">Metabolic syndrome X</div>",
                    "status": "generated"
                },
                "verificationStatus": "confirmed",
                "meta": {
                    "tag": [
                        {
                            "system": "https://smarthealthit.org/tags",
                            "code": "smart-7-2017"
                        }
                    ]
                }
            },
            "fullUrl": "/Condition/smart-Condition-360"
        },
        {
            "request": {
                "method": "PUT",
                "url": "Condition/smart-Condition-361"
            },
            "resource": {
                "clinicalStatus": "active",
                "code": {
                    "coding": [
                        {
                            "code": "238136002",
                            "display": "Morbid obesity",
                            "system": "http://snomed.info/sct"
                        }
                    ],
                    "text": "Morbid obesity"
                },
                "id": "smart-Condition-361",
                "onsetDateTime": "2003-11-18",
                "resourceType": "Condition",
                "subject": {
                    "reference": "Patient/smart-1685497"
                },
                "text": {
                    "div": "<div xmlns=\"http://www.w3.org/1999/xhtml\">Morbid obesity</div>",
                    "status": "generated"
                },
                "verificationStatus": "confirmed",
                "meta": {
                    "tag": [
                        {
                            "system": "https://smarthealthit.org/tags",
                            "code": "smart-7-2017"
                        }
                    ]
                }
            },
            "fullUrl": "/Condition/smart-Condition-361"
        },
        {
            "request": {
                "method": "PUT",
                "url": "Condition/smart-Condition-362"
            },
            "resource": {
                "clinicalStatus": "active",
                "code": {
                    "coding": [
                        {
                            "code": "1201005",
                            "display": "Benign essential hypertension",
                            "system": "http://snomed.info/sct"
                        }
                    ],
                    "text": "Benign essential hypertension"
                },
                "id": "smart-Condition-362",
                "onsetDateTime": "2003-12-20",
                "resourceType": "Condition",
                "subject": {
                    "reference": "Patient/smart-1685497"
                },
                "text": {
                    "div": "<div xmlns=\"http://www.w3.org/1999/xhtml\">Benign essential hypertension</div>",
                    "status": "generated"
                },
                "verificationStatus": "confirmed",
                "meta": {
                    "tag": [
                        {
                            "system": "https://smarthealthit.org/tags",
                            "code": "smart-7-2017"
                        }
                    ]
                }
            },
            "fullUrl": "/Condition/smart-Condition-362"
        },
        {
            "request": {
                "method": "PUT",
                "url": "Condition/smart-Condition-363"
            },
            "resource": {
                "clinicalStatus": "active",
                "code": {
                    "coding": [
                        {
                            "code": "267432004",
                            "display": "Pure hypercholesterolemia",
                            "system": "http://snomed.info/sct"
                        }
                    ],
                    "text": "Pure hypercholesterolemia"
                },
                "id": "smart-Condition-363",
                "onsetDateTime": "2003-12-20",
                "resourceType": "Condition",
                "subject": {
                    "reference": "Patient/smart-1685497"
                },
                "text": {
                    "div": "<div xmlns=\"http://www.w3.org/1999/xhtml\">Pure hypercholesterolemia</div>",
                    "status": "generated"
                },
                "verificationStatus": "confirmed",
                "meta": {
                    "tag": [
                        {
                            "system": "https://smarthealthit.org/tags",
                            "code": "smart-7-2017"
                        }
                    ]
                }
            },
            "fullUrl": "/Condition/smart-Condition-363"
        },
        {
            "request": {
                "method": "PUT",
                "url": "Condition/smart-Condition-364"
            },
            "resource": {
                "clinicalStatus": "active",
                "code": {
                    "coding": [
                        {
                            "code": "44054006",
                            "display": "Diabetes mellitus type 2",
                            "system": "http://snomed.info/sct"
                        }
                    ],
                    "text": "Diabetes mellitus type 2"
                },
                "id": "smart-Condition-364",
                "onsetDateTime": "2005-01-18",
                "resourceType": "Condition",
                "subject": {
                    "reference": "Patient/smart-1685497"
                },
                "text": {
                    "div": "<div xmlns=\"http://www.w3.org/1999/xhtml\">Diabetes mellitus type 2</div>",
                    "status": "generated"
                },
                "verificationStatus": "confirmed",
                "meta": {
                    "tag": [
                        {
                            "system": "https://smarthealthit.org/tags",
                            "code": "smart-7-2017"
                        }
                    ]
                }
            },
            "fullUrl": "/Condition/smart-Condition-364"
        },
        {
            "request": {
                "method": "PUT",
                "url": "Condition/smart-Condition-365"
            },
            "resource": {
                "clinicalStatus": "active",
                "code": {
                    "coding": [
                        {
                            "code": "55822004",
                            "display": "Hyperlipidemia",
                            "system": "http://snomed.info/sct"
                        }
                    ],
                    "text": "Hyperlipidemia"
                },
                "id": "smart-Condition-365",
                "onsetDateTime": "2005-01-18",
                "resourceType": "Condition",
                "subject": {
                    "reference": "Patient/smart-1685497"
                },
                "text": {
                    "div": "<div xmlns=\"http://www.w3.org/1999/xhtml\">Hyperlipidemia</div>",
                    "status": "generated"
                },
                "verificationStatus": "confirmed",
                "meta": {
                    "tag": [
                        {
                            "system": "https://smarthealthit.org/tags",
                            "code": "smart-7-2017"
                        }
                    ]
                }
            },
            "fullUrl": "/Condition/smart-Condition-365"
        },
        {
            "request": {
                "method": "PUT",
                "url": "Condition/smart-Condition-366"
            },
            "resource": {
                "clinicalStatus": "active",
                "code": {
                    "coding": [
                        {
                            "code": "279039007",
                            "display": "Low back pain",
                            "system": "http://snomed.info/sct"
                        }
                    ],
                    "text": "Low back pain"
                },
                "id": "smart-Condition-366",
                "onsetDateTime": "2005-08-20",
                "resourceType": "Condition",
                "subject": {
                    "reference": "Patient/smart-1685497"
                },
                "text": {
                    "div": "<div xmlns=\"http://www.w3.org/1999/xhtml\">Low back pain</div>",
                    "status": "generated"
                },
                "verificationStatus": "confirmed",
                "meta": {
                    "tag": [
                        {
                            "system": "https://smarthealthit.org/tags",
                            "code": "smart-7-2017"
                        }
                    ]
                }
            },
            "fullUrl": "/Condition/smart-Condition-366"
        },
        {
            "request": {
                "method": "PUT",
                "url": "Observation/smart-smokingstatus-28"
            },
            "resource": {
                "category": [
                    {
                        "coding": {
                            "code": "social-history",
                            "display": "Social History",
                            "system": "http://hl7.org/fhir/observation-category"
                        },
                        "text": "Social History"
                    }
                ],
                "code": {
                    "coding": [
                        {
                            "code": "72166-2",
                            "display": "Tobacco smoking status",
                            "system": "http://loinc.org"
                        }
                    ],
                    "text": "Tobacco smoking status"
                },
                "effectiveDateTime": "2016-02-13",
                "id": "smart-smokingstatus-28",
                "identifier": [
                    {
                        "system": "http://www.bmc.nl/zorgportal/identifiers/observations",
                        "use": "official",
                        "value": "smart-28"
                    }
                ],
                "performer": {
                    "reference": "Practitioner/smart-Practitioner-72080416"
                },
                "resourceType": "Observation",
                "status": "final",
                "subject": {
                    "reference": "Patient/smart-1685497"
                },
                "text": {
                    "div": "<div xmlns=\"http://www.w3.org/1999/xhtml\">Tobacco smoking status: Never smoker</div>",
                    "status": "generated"
                },
                "valueCodeableConcept": {
                    "coding": [
                        {
                            "code": "266919005",
                            "display": "Never smoker",
                            "system": "http://snomed.info/sct"
                        }
                    ],
                    "text": "Never smoker"
                },
                "meta": {
                    "tag": [
                        {
                            "system": "https://smarthealthit.org/tags",
                            "code": "smart-7-2017"
                        }
                    ]
                }
            },
            "fullUrl": "/Observation/smart-smokingstatus-28"
        },
        {
            "request": {
                "method": "PUT",
                "url": "AllergyIntolerance/smart-AllergyIntolerance-39"
            },
            "resource": {
                "assertedDate": "2000",
                "category": "medication",
                "clinicalStatus": "active",
                "code": {
                    "coding": [
                        {
                            "code": "N0000175503",
                            "display": "sulfonamide antibacterial",
                            "system": "http://rxnav.nlm.nih.gov/REST/Ndfrt"
                        }
                    ],
                    "text": "sulfonamide antibacterial"
                },
                "criticality": "low",
                "id": "smart-AllergyIntolerance-39",
                "patient": {
                    "reference": "Patient/smart-1685497"
                },
                "reaction": {
                    "manifestation": {
                        "coding": [
                            {
                                "code": "271807003",
                                "display": "skin rash",
                                "system": "http://snomed.info/sct"
                            }
                        ],
                        "text": "skin rash"
                    },
                    "severity": "mild"
                },
                "resourceType": "AllergyIntolerance",
                "text": {
                    "div": "<div xmlns=\"http://www.w3.org/1999/xhtml\">Sensitivity to sulfonamide antibacterial</div>",
                    "status": "generated"
                },
                "verificationStatus": "confirmed",
                "meta": {
                    "tag": [
                        {
                            "system": "https://smarthealthit.org/tags",
                            "code": "smart-7-2017"
                        }
                    ]
                }
            },
            "fullUrl": "/AllergyIntolerance/smart-AllergyIntolerance-39"
        },
        {
            "request": {
                "method": "PUT",
                "url": "AllergyIntolerance/smart-AllergyIntolerance-40"
            },
            "resource": {
                "assertedDate": "2000",
                "category": "food",
                "clinicalStatus": "active",
                "code": {
                    "coding": [
                        {
                            "code": "QE1QX6B99R",
                            "display": "peanut",
                            "system": "http://fda.gov/UNII/"
                        }
                    ],
                    "text": "peanut"
                },
                "criticality": "high",
                "id": "smart-AllergyIntolerance-40",
                "patient": {
                    "reference": "Patient/smart-1685497"
                },
                "reaction": {
                    "manifestation": {
                        "coding": [
                            {
                                "code": "39579001",
                                "display": "Anaphylaxis",
                                "system": "http://snomed.info/sct"
                            }
                        ],
                        "text": "Anaphylaxis"
                    },
                    "severity": "severe"
                },
                "resourceType": "AllergyIntolerance",
                "text": {
                    "div": "<div xmlns=\"http://www.w3.org/1999/xhtml\">Sensitivity to peanut</div>",
                    "status": "generated"
                },
                "verificationStatus": "confirmed",
                "meta": {
                    "tag": [
                        {
                            "system": "https://smarthealthit.org/tags",
                            "code": "smart-7-2017"
                        }
                    ]
                }
            },
            "fullUrl": "/AllergyIntolerance/smart-AllergyIntolerance-40"
        }
    ],
    "resourceType": "Bundle",
    "type": "transaction"
}