{
    "entry": [
        {
            "request": {
                "method": "PUT",
                "url": "Patient/smart-767980"
            },
            "resource": {
                "active": true,
                "address": [
                    {
                        "city": "Broken Arrow",
                        "country": "USA",
                        "line": [
                            "33 Park Ave"
                        ],
                        "postalCode": "74014",
                        "state": "OK",
                        "use": "home"
                    }
                ],
                "birthDate": "1953-08-29",
                "gender": "male",
                "generalPractitioner": [
                    {
                        "reference": "Practitioner/smart-Practitioner-71032702"
                    }
                ],
                "id": "smart-767980",
                "identifier": [
                    {
                        "system": "http://hospital.smarthealthit.org",
                        "type": {
                            "coding": [
                                {
                                    "code": "MR",
                                    "display": "Medical Record Number",
                                    "system": "http://hl7.org/fhir/v2/0203"
                                }
                            ],
                            "text": "Medical Record Number"
                        },
                        "use": "official",
                        "value": "smart-767980"
                    }
                ],
                "name": [
                    {
                        "family": "Moore",
                        "given": [
                            "Thomas",
                            "Q"
                        ],
                        "use": "official"
                    }
                ],
                "resourceType": "Patient",
                "telecom": [
                    {
                        "system": "phone",
                        "use": "mobile",
                        "value": "800-583-2533"
                    },
                    {
                        "system": "email",
                        "value": "thomas.moore@example.com"
                    }
                ],
                "text": {
                    "div": "<div xmlns=\"http://www.w3.org/1999/xhtml\">Thomas Moore</div>",
                    "status": "generated"
                },
                "meta": {
                    "tag": [
                        {
                            "system": "https://smarthealthit.org/tags",
                            "code": "smart-7-2017"
                        }
                    ]
                }
            },
            "fullUrl": "/Patient/smart-767980"
        },
        {
            "request": {
                "method": "PUT",
                "url": "Observation/smart-1749-lab"
            },
            "resource": {
                "category": [
                    {
                        "coding": [
                            {
                                "code": "laboratory",
                                "display": "Laboratory",
                                "system": "http://hl7.org/fhir/observation-category"
                            }
                        ],
                        "text": "Laboratory"
                    }
                ],
                "code": {
                    "coding": [
                        {
                            "code": "13969-1",
                            "display": "CK MB SerPl-mCnc",
                            "system": "http://loinc.org"
                        }
                    ],
                    "text": "CK MB SerPl-mCnc"
                },
                "effectiveDateTime": "2004-08-12",
                "id": "smart-1749-lab",
                "identifier": [
                    {
                        "system": "http://www.bmc.nl/zorgportal/identifiers/observations",
                        "use": "official",
                        "value": "smart-1749-lab"
                    }
                ],
                "performer": [
                    {
                        "reference": "Practitioner/smart-Practitioner-71032702"
                    }
                ],
                "referenceRange": [
                    {
                        "high": {
                            "code": "ng/mL",
                            "system": "http://unitsofmeasure.org",
                            "unit": "ng/mL",
                            "value": 5
                        },
                        "low": {
                            "code": "ng/mL",
                            "system": "http://unitsofmeasure.org",
                            "unit": "ng/mL",
                            "value": 0
                        },
                        "type": {
                            "coding": [
                                {
                                    "code": "normal",
                                    "display": "Normal Range",
                                    "system": "http://hl7.org/fhir/referencerange-meaning"
                                }
                            ],
                            "text": "Normal Range"
                        }
                    }
                ],
                "resourceType": "Observation",
                "status": "unknown",
                "subject": {
                    "reference": "Patient/smart-767980"
                },
                "text": {
                    "div": "<div xmlns=\"http://www.w3.org/1999/xhtml\">2004-08-12: CK MB SerPl-mCnc = 7 ng/mL</div>",
                    "status": "generated"
                },
                "valueQuantity": {
                    "code": "ng/mL",
                    "system": "http://unitsofmeasure.org",
                    "unit": "ng/mL",
                    "value": 7
                },
                "meta": {
                    "tag": [
                        {
                            "system": "https://smarthealthit.org/tags",
                            "code": "smart-7-2017"
                        }
                    ]
                }
            },
            "fullUrl": "/Observation/smart-1749-lab"
        },
        {
            "request": {
                "method": "PUT",
                "url": "Observation/smart-1750-lab"
            },
            "resource": {
                "category": [
                    {
                        "coding": [
                            {
                                "code": "laboratory",
                                "display": "Laboratory",
                                "system": "http://hl7.org/fhir/observation-category"
                            }
                        ],
                        "text": "Laboratory"
                    }
                ],
                "code": {
                    "coding": [
                        {
                            "code": "10839-9",
                            "display": "Troponin I SerPl-mCnc",
                            "system": "http://loinc.org"
                        }
                    ],
                    "text": "Troponin I SerPl-mCnc"
                },
                "effectiveDateTime": "2004-08-12",
                "id": "smart-1750-lab",
                "identifier": [
                    {
                        "system": "http://www.bmc.nl/zorgportal/identifiers/observations",
                        "use": "official",
                        "value": "smart-1750-lab"
                    }
                ],
                "performer": [
                    {
                        "reference": "Practitioner/smart-Practitioner-71032702"
                    }
                ],
                "referenceRange": [
                    {
                        "high": {
                            "code": "ng/mL",
                            "system": "http://unitsofmeasure.org",
                            "unit": "ng/mL",
                            "value": 1.5
                        },
                        "low": {
                            "code": "ng/mL",
                            "system": "http://unitsofmeasure.org",
                            "unit": "ng/mL",
                            "value": 0
                        },
                        "type": {
                            "coding": [
                                {
                                    "code": "normal",
                                    "display": "Normal Range",
                                    "system": "http://hl7.org/fhir/referencerange-meaning"
                                }
                            ],
                            "text": "Normal Range"
                        }
                    }
                ],
                "resourceType": "Observation",
                "status": "unknown",
                "subject": {
                    "reference": "Patient/smart-767980"
                },
                "text": {
                    "div": "<div xmlns=\"http://www.w3.org/1999/xhtml\">2004-08-12: Troponin I SerPl-mCnc = 0 ng/mL</div>",
                    "status": "generated"
                },
                "valueQuantity": {
                    "code": "ng/mL",
                    "system": "http://unitsofmeasure.org",
                    "unit": "ng/mL",
                    "value": 0
                },
                "meta": {
                    "tag": [
                        {
                            "system": "https://smarthealthit.org/tags",
                            "code": "smart-7-2017"
                        }
                    ]
                }
            },
            "fullUrl": "/Observation/smart-1750-lab"
        },
        {
            "request": {
                "method": "PUT",
                "url": "Observation/smart-1751-lab"
            },
            "resource": {
                "category": [
                    {
                        "coding": [
                            {
                                "code": "laboratory",
                                "display": "Laboratory",
                                "system": "http://hl7.org/fhir/observation-category"
                            }
                        ],
                        "text": "Laboratory"
                    }
                ],
                "code": {
                    "coding": [
                        {
                            "code": "2345-7",
                            "display": "Glucose SerPl-mCnc",
                            "system": "http://loinc.org"
                        }
                    ],
                    "text": "Glucose SerPl-mCnc"
                },
                "effectiveDateTime": "2004-08-12",
                "id": "smart-1751-lab",
                "identifier": [
                    {
                        "system": "http://www.bmc.nl/zorgportal/identifiers/observations",
                        "use": "official",
                        "value": "smart-1751-lab"
                    }
                ],
                "performer": [
                    {
                        "reference": "Practitioner/smart-Practitioner-71032702"
                    }
                ],
                "referenceRange": [
                    {
                        "high": {
                            "code": "mg/dL",
                            "system": "http://unitsofmeasure.org",
                            "unit": "mg/dL",
                            "value": 99
                        },
                        "low": {
                            "code": "mg/dL",
                            "system": "http://unitsofmeasure.org",
                            "unit": "mg/dL",
                            "value": 65
                        },
                        "type": {
                            "coding": [
                                {
                                    "code": "normal",
                                    "display": "Normal Range",
                                    "system": "http://hl7.org/fhir/referencerange-meaning"
                                }
                            ],
                            "text": "Normal Range"
                        }
                    }
                ],
                "resourceType": "Observation",
                "status": "unknown",
                "subject": {
                    "reference": "Patient/smart-767980"
                },
                "text": {
                    "div": "<div xmlns=\"http://www.w3.org/1999/xhtml\">2004-08-12: Glucose SerPl-mCnc = 142 mg/dL</div>",
                    "status": "generated"
                },
                "valueQuantity": {
                    "code": "mg/dL",
                    "system": "http://unitsofmeasure.org",
                    "unit": "mg/dL",
                    "value": 142
                },
                "meta": {
                    "tag": [
                        {
                            "system": "https://smarthealthit.org/tags",
                            "code": "smart-7-2017"
                        }
                    ]
                }
            },
            "fullUrl": "/Observation/smart-1751-lab"
        },
        {
            "request": {
                "method": "PUT",
                "url": "Observation/smart-1752-lab"
            },
            "resource": {
                "category": [
                    {
                        "coding": [
                            {
                                "code": "laboratory",
                                "display": "Laboratory",
                                "system": "http://hl7.org/fhir/observation-category"
                            }
                        ],
                        "text": "Laboratory"
                    }
                ],
                "code": {
                    "coding": [
                        {
                            "code": "3094-0",
                            "display": "BUN SerPl-mCnc",
                            "system": "http://loinc.org"
                        }
                    ],
                    "text": "BUN SerPl-mCnc"
                },
                "effectiveDateTime": "2004-08-12",
                "id": "smart-1752-lab",
                "identifier": [
                    {
                        "system": "http://www.bmc.nl/zorgportal/identifiers/observations",
                        "use": "official",
                        "value": "smart-1752-lab"
                    }
                ],
                "performer": [
                    {
                        "reference": "Practitioner/smart-Practitioner-71032702"
                    }
                ],
                "referenceRange": [
                    {
                        "high": {
                            "code": "mg/dL",
                            "system": "http://unitsofmeasure.org",
                            "unit": "mg/dL",
                            "value": 20
                        },
                        "low": {
                            "code": "mg/dL",
                            "system": "http://unitsofmeasure.org",
                            "unit": "mg/dL",
                            "value": 9
                        },
                        "type": {
                            "coding": [
                                {
                                    "code": "normal",
                                    "display": "Normal Range",
                                    "system": "http://hl7.org/fhir/referencerange-meaning"
                                }
                            ],
                            "text": "Normal Range"
                        }
                    }
                ],
                "resourceType": "Observation",
                "status": "unknown",
                "subject": {
                    "reference": "Patient/smart-767980"
                },
                "text": {
                    "div": "<div xmlns=\"http://www.w3.org/1999/xhtml\">2004-08-12: BUN SerPl-mCnc = 19 mg/dL</div>",
                    "status": "generated"
                },
                "valueQuantity": {
                    "code": "mg/dL",
                    "system": "http://unitsofmeasure.org",
                    "unit": "mg/dL",
                    "value": 19
                },
                "meta": {
                    "tag": [
                        {
                            "system": "https://smarthealthit.org/tags",
                            "code": "smart-7-2017"
                        }
                    ]
                }
            },
            "fullUrl": "/Observation/smart-1752-lab"
        },
        {
            "request": {
                "method": "PUT",
                "url": "Observation/smart-1753-lab"
            },
            "resource": {
                "category": [
                    {
                        "coding": [
                            {
                                "code": "laboratory",
                                "display": "Laboratory",
                                "system": "http://hl7.org/fhir/observation-category"
                            }
                        ],
                        "text": "Laboratory"
                    }
                ],
                "code": {
                    "coding": [
                        {
                            "code": "2157-6",
                            "display": "CK SerPl-cCnc",
                            "system": "http://loinc.org"
                        }
                    ],
                    "text": "CK SerPl-cCnc"
                },
                "effectiveDateTime": "2004-08-12",
                "id": "smart-1753-lab",
                "identifier": [
                    {
                        "system": "http://www.bmc.nl/zorgportal/identifiers/observations",
                        "use": "official",
                        "value": "smart-1753-lab"
                    }
                ],
                "performer": [
                    {
                        "reference": "Practitioner/smart-Practitioner-71032702"
                    }
                ],
                "referenceRange": [
                    {
                        "high": {
                            "code": "U/L",
                            "system": "http://unitsofmeasure.org",
                            "unit": "U/L",
                            "value": 259
                        },
                        "low": {
                            "code": "U/L",
                            "system": "http://unitsofmeasure.org",
                            "unit": "U/L",
                            "value": 20
                        },
                        "type": {
                            "coding": [
                                {
                                    "code": "normal",
                                    "display": "Normal Range",
                                    "system": "http://hl7.org/fhir/referencerange-meaning"
                                }
                            ],
                            "text": "Normal Range"
                        }
                    }
                ],
                "resourceType": "Observation",
                "status": "unknown",
                "subject": {
                    "reference": "Patient/smart-767980"
                },
                "text": {
                    "div": "<div xmlns=\"http://www.w3.org/1999/xhtml\">2004-08-12: CK SerPl-cCnc = 448 U/L</div>",
                    "status": "generated"
                },
                "valueQuantity": {
                    "code": "U/L",
                    "system": "http://unitsofmeasure.org",
                    "unit": "U/L",
                    "value": 448
                },
                "meta": {
                    "tag": [
                        {
                            "system": "https://smarthealthit.org/tags",
                            "code": "smart-7-2017"
                        }
                    ]
                }
            },
            "fullUrl": "/Observation/smart-1753-lab"
        },
        {
            "request": {
                "method": "PUT",
                "url": "Observation/smart-1754-lab"
            },
            "resource": {
                "category": [
                    {
                        "coding": [
                            {
                                "code": "laboratory",
                                "display": "Laboratory",
                                "system": "http://hl7.org/fhir/observation-category"
                            }
                        ],
                        "text": "Laboratory"
                    }
                ],
                "code": {
                    "coding": [
                        {
                            "code": "28542-9",
                            "display": "PMV Bld",
                            "system": "http://loinc.org"
                        }
                    ],
                    "text": "PMV Bld"
                },
                "effectiveDateTime": "2004-08-12",
                "id": "smart-1754-lab",
                "identifier": [
                    {
                        "system": "http://www.bmc.nl/zorgportal/identifiers/observations",
                        "use": "official",
                        "value": "smart-1754-lab"
                    }
                ],
                "performer": [
                    {
                        "reference": "Practitioner/smart-Practitioner-71032702"
                    }
                ],
                "referenceRange": [
                    {
                        "high": {
                            "code": "fL",
                            "system": "http://unitsofmeasure.org",
                            "unit": "fL",
                            "value": 9.5
                        },
                        "low": {
                            "code": "fL",
                            "system": "http://unitsofmeasure.org",
                            "unit": "fL",
                            "value": 6
                        },
                        "type": {
                            "coding": [
                                {
                                    "code": "normal",
                                    "display": "Normal Range",
                                    "system": "http://hl7.org/fhir/referencerange-meaning"
                                }
                            ],
                            "text": "Normal Range"
                        }
                    }
                ],
                "resourceType": "Observation",
                "status": "unknown",
                "subject": {
                    "reference": "Patient/smart-767980"
                },
                "text": {
                    "div": "<div xmlns=\"http://www.w3.org/1999/xhtml\">2004-08-12: PMV Bld = 8.6 fL</div>",
                    "status": "generated"
                },
                "valueQuantity": {
                    "code": "fL",
                    "system": "http://unitsofmeasure.org",
                    "unit": "fL",
                    "value": 8.6
                },
                "meta": {
                    "tag": [
                        {
                            "system": "https://smarthealthit.org/tags",
                            "code": "smart-7-2017"
                        }
                    ]
                }
            },
            "fullUrl": "/Observation/smart-1754-lab"
        },
        {
            "request": {
                "method": "PUT",
                "url": "Observation/smart-1755-lab"
            },
            "resource": {
                "category": [
                    {
                        "coding": [
                            {
                                "code": "laboratory",
                                "display": "Laboratory",
                                "system": "http://hl7.org/fhir/observation-category"
                            }
                        ],
                        "text": "Laboratory"
                    }
                ],
                "code": {
                    "coding": [
                        {
                            "code": "30385-9",
                            "display": "RDW RBC-Rto",
                            "system": "http://loinc.org"
                        }
                    ],
                    "text": "RDW RBC-Rto"
                },
                "effectiveDateTime": "2004-08-12",
                "id": "smart-1755-lab",
                "identifier": [
                    {
                        "system": "http://www.bmc.nl/zorgportal/identifiers/observations",
                        "use": "official",
                        "value": "smart-1755-lab"
                    }
                ],
                "performer": [
                    {
                        "reference": "Practitioner/smart-Practitioner-71032702"
                    }
                ],
                "referenceRange": [
                    {
                        "high": {
                            "code": "%",
                            "system": "http://unitsofmeasure.org",
                            "unit": "%",
                            "value": 14
                        },
                        "low": {
                            "code": "%",
                            "system": "http://unitsofmeasure.org",
                            "unit": "%",
                            "value": 11.5
                        },
                        "type": {
                            "coding": [
                                {
                                    "code": "normal",
                                    "display": "Normal Range",
                                    "system": "http://hl7.org/fhir/referencerange-meaning"
                                }
                            ],
                            "text": "Normal Range"
                        }
                    }
                ],
                "resourceType": "Observation",
                "status": "unknown",
                "subject": {
                    "reference": "Patient/smart-767980"
                },
                "text": {
                    "div": "<div xmlns=\"http://www.w3.org/1999/xhtml\">2004-08-12: RDW RBC-Rto = 12.9 %</div>",
                    "status": "generated"
                },
                "valueQuantity": {
                    "code": "%",
                    "system": "http://unitsofmeasure.org",
                    "unit": "%",
                    "value": 12.9
                },
                "meta": {
                    "tag": [
                        {
                            "system": "https://smarthealthit.org/tags",
                            "code": "smart-7-2017"
                        }
                    ]
                }
            },
            "fullUrl": "/Observation/smart-1755-lab"
        },
        {
            "request": {
                "method": "PUT",
                "url": "Observation/smart-1756-lab"
            },
            "resource": {
                "category": [
                    {
                        "coding": [
                            {
                                "code": "laboratory",
                                "display": "Laboratory",
                                "system": "http://hl7.org/fhir/observation-category"
                            }
                        ],
                        "text": "Laboratory"
                    }
                ],
                "code": {
                    "coding": [
                        {
                            "code": "17861-6",
                            "display": "Calcium SerPl-mCnc",
                            "system": "http://loinc.org"
                        }
                    ],
                    "text": "Calcium SerPl-mCnc"
                },
                "effectiveDateTime": "2004-08-12",
                "id": "smart-1756-lab",
                "identifier": [
                    {
                        "system": "http://www.bmc.nl/zorgportal/identifiers/observations",
                        "use": "official",
                        "value": "smart-1756-lab"
                    }
                ],
                "performer": [
                    {
                        "reference": "Practitioner/smart-Practitioner-71032702"
                    }
                ],
                "referenceRange": [
                    {
                        "high": {
                            "code": "mg/dL",
                            "system": "http://unitsofmeasure.org",
                            "unit": "mg/dL",
                            "value": 10.2
                        },
                        "low": {
                            "code": "mg/dL",
                            "system": "http://unitsofmeasure.org",
                            "unit": "mg/dL",
                            "value": 8.4
                        },
                        "type": {
                            "coding": [
                                {
                                    "code": "normal",
                                    "display": "Normal Range",
                                    "system": "http://hl7.org/fhir/referencerange-meaning"
                                }
                            ],
                            "text": "Normal Range"
                        }
                    }
                ],
                "resourceType": "Observation",
                "status": "unknown",
                "subject": {
                    "reference": "Patient/smart-767980"
                },
                "text": {
                    "div": "<div xmlns=\"http://www.w3.org/1999/xhtml\">2004-08-12: Calcium SerPl-mCnc = 9 mg/dL</div>",
                    "status": "generated"
                },
                "valueQuantity": {
                    "code": "mg/dL",
                    "system": "http://unitsofmeasure.org",
                    "unit": "mg/dL",
                    "value": 9
                },
                "meta": {
                    "tag": [
                        {
                            "system": "https://smarthealthit.org/tags",
                            "code": "smart-7-2017"
                        }
                    ]
                }
            },
            "fullUrl": "/Observation/smart-1756-lab"
        },
        {
            "request": {
                "method": "PUT",
                "url": "Observation/smart-1757-lab"
            },
            "resource": {
                "category": [
                    {
                        "coding": [
                            {
                                "code": "laboratory",
                                "display": "Laboratory",
                                "system": "http://hl7.org/fhir/observation-category"
                            }
                        ],
                        "text": "Laboratory"
                    }
                ],
                "code": {
                    "coding": [
                        {
                            "code": "2951-2",
                            "display": "Sodium SerPl-sCnc",
                            "system": "http://loinc.org"
                        }
                    ],
                    "text": "Sodium SerPl-sCnc"
                },
                "effectiveDateTime": "2004-08-12",
                "id": "smart-1757-lab",
                "identifier": [
                    {
                        "system": "http://www.bmc.nl/zorgportal/identifiers/observations",
                        "use": "official",
                        "value": "smart-1757-lab"
                    }
                ],
                "performer": [
                    {
                        "reference": "Practitioner/smart-Practitioner-71032702"
                    }
                ],
                "referenceRange": [
                    {
                        "high": {
                            "code": "mmol/L",
                            "system": "http://unitsofmeasure.org",
                            "unit": "mmol/L",
                            "value": 145
                        },
                        "low": {
                            "code": "mmol/L",
                            "system": "http://unitsofmeasure.org",
                            "unit": "mmol/L",
                            "value": 137
                        },
                        "type": {
                            "coding": [
                                {
                                    "code": "normal",
                                    "display": "Normal Range",
                                    "system": "http://hl7.org/fhir/referencerange-meaning"
                                }
                            ],
                            "text": "Normal Range"
                        }
                    }
                ],
                "resourceType": "Observation",
                "status": "unknown",
                "subject": {
                    "reference": "Patient/smart-767980"
                },
                "text": {
                    "div": "<div xmlns=\"http://www.w3.org/1999/xhtml\">2004-08-12: Sodium SerPl-sCnc = 142 mmol/L</div>",
                    "status": "generated"
                },
                "valueQuantity": {
                    "code": "mmol/L",
                    "system": "http://unitsofmeasure.org",
                    "unit": "mmol/L",
                    "value": 142
                },
                "meta": {
                    "tag": [
                        {
                            "system": "https://smarthealthit.org/tags",
                            "code": "smart-7-2017"
                        }
                    ]
                }
            },
            "fullUrl": "/Observation/smart-1757-lab"
        },
        {
            "request": {
                "method": "PUT",
                "url": "Observation/smart-1758-lab"
            },
            "resource": {
                "category": [
                    {
                        "coding": [
                            {
                                "code": "laboratory",
                                "display": "Laboratory",
                                "system": "http://hl7.org/fhir/observation-category"
                            }
                        ],
                        "text": "Laboratory"
                    }
                ],
                "code": {
                    "coding": [
                        {
                            "code": "2160-0",
                            "display": "Creat SerPl-mCnc",
                            "system": "http://loinc.org"
                        }
                    ],
                    "text": "Creat SerPl-mCnc"
                },
                "effectiveDateTime": "2004-08-12",
                "id": "smart-1758-lab",
                "identifier": [
                    {
                        "system": "http://www.bmc.nl/zorgportal/identifiers/observations",
                        "use": "official",
                        "value": "smart-1758-lab"
                    }
                ],
                "performer": [
                    {
                        "reference": "Practitioner/smart-Practitioner-71032702"
                    }
                ],
                "referenceRange": [
                    {
                        "high": {
                            "code": "mg/dL",
                            "system": "http://unitsofmeasure.org",
                            "unit": "mg/dL",
                            "value": 1.5
                        },
                        "low": {
                            "code": "mg/dL",
                            "system": "http://unitsofmeasure.org",
                            "unit": "mg/dL",
                            "value": 0.8
                        },
                        "type": {
                            "coding": [
                                {
                                    "code": "normal",
                                    "display": "Normal Range",
                                    "system": "http://hl7.org/fhir/referencerange-meaning"
                                }
                            ],
                            "text": "Normal Range"
                        }
                    }
                ],
                "resourceType": "Observation",
                "status": "unknown",
                "subject": {
                    "reference": "Patient/smart-767980"
                },
                "text": {
                    "div": "<div xmlns=\"http://www.w3.org/1999/xhtml\">2004-08-12: Creat SerPl-mCnc = 1.1 mg/dL</div>",
                    "status": "generated"
                },
                "valueQuantity": {
                    "code": "mg/dL",
                    "system": "http://unitsofmeasure.org",
                    "unit": "mg/dL",
                    "value": 1.1
                },
                "meta": {
                    "tag": [
                        {
                            "system": "https://smarthealthit.org/tags",
                            "code": "smart-7-2017"
                        }
                    ]
                }
            },
            "fullUrl": "/Observation/smart-1758-lab"
        },
        {
            "request": {
                "method": "PUT",
                "url": "Observation/smart-1759-lab"
            },
            "resource": {
                "category": [
                    {
                        "coding": [
                            {
                                "code": "laboratory",
                                "display": "Laboratory",
                                "system": "http://hl7.org/fhir/observation-category"
                            }
                        ],
                        "text": "Laboratory"
                    }
                ],
                "code": {
                    "coding": [
                        {
                            "code": "2823-3",
                            "display": "Potassium SerPl-sCnc",
                            "system": "http://loinc.org"
                        }
                    ],
                    "text": "Potassium SerPl-sCnc"
                },
                "effectiveDateTime": "2004-08-12",
                "id": "smart-1759-lab",
                "identifier": [
                    {
                        "system": "http://www.bmc.nl/zorgportal/identifiers/observations",
                        "use": "official",
                        "value": "smart-1759-lab"
                    }
                ],
                "performer": [
                    {
                        "reference": "Practitioner/smart-Practitioner-71032702"
                    }
                ],
                "referenceRange": [
                    {
                        "high": {
                            "code": "mmol/L",
                            "system": "http://unitsofmeasure.org",
                            "unit": "mmol/L",
                            "value": 5.5
                        },
                        "low": {
                            "code": "mmol/L",
                            "system": "http://unitsofmeasure.org",
                            "unit": "mmol/L",
                            "value": 3.6
                        },
                        "type": {
                            "coding": [
                                {
                                    "code": "normal",
                                    "display": "Normal Range",
                                    "system": "http://hl7.org/fhir/referencerange-meaning"
                                }
                            ],
                            "text": "Normal Range"
                        }
                    }
                ],
                "resourceType": "Observation",
                "status": "unknown",
                "subject": {
                    "reference": "Patient/smart-767980"
                },
                "text": {
                    "div": "<div xmlns=\"http://www.w3.org/1999/xhtml\">2004-08-12: Potassium SerPl-sCnc = 3.9 mmol/L</div>",
                    "status": "generated"
                },
                "valueQuantity": {
                    "code": "mmol/L",
                    "system": "http://unitsofmeasure.org",
                    "unit": "mmol/L",
                    "value": 3.9
                },
                "meta": {
                    "tag": [
                        {
                            "system": "https://smarthealthit.org/tags",
                            "code": "smart-7-2017"
                        }
                    ]
                }
            },
            "fullUrl": "/Observation/smart-1759-lab"
        },
        {
            "request": {
                "method": "PUT",
                "url": "Observation/smart-1760-lab"
            },
            "resource": {
                "category": [
                    {
                        "coding": [
                            {
                                "code": "laboratory",
                                "display": "Laboratory",
                                "system": "http://hl7.org/fhir/observation-category"
                            }
                        ],
                        "text": "Laboratory"
                    }
                ],
                "code": {
                    "coding": [
                        {
                            "code": "2075-0",
                            "display": "Chloride SerPl-sCnc",
                            "system": "http://loinc.org"
                        }
                    ],
                    "text": "Chloride SerPl-sCnc"
                },
                "effectiveDateTime": "2004-08-12",
                "id": "smart-1760-lab",
                "identifier": [
                    {
                        "system": "http://www.bmc.nl/zorgportal/identifiers/observations",
                        "use": "official",
                        "value": "smart-1760-lab"
                    }
                ],
                "performer": [
                    {
                        "reference": "Practitioner/smart-Practitioner-71032702"
                    }
                ],
                "referenceRange": [
                    {
                        "high": {
                            "code": "mmol/L",
                            "system": "http://unitsofmeasure.org",
                            "unit": "mmol/L",
                            "value": 107
                        },
                        "low": {
                            "code": "mmol/L",
                            "system": "http://unitsofmeasure.org",
                            "unit": "mmol/L",
                            "value": 98
                        },
                        "type": {
                            "coding": [
                                {
                                    "code": "normal",
                                    "display": "Normal Range",
                                    "system": "http://hl7.org/fhir/referencerange-meaning"
                                }
                            ],
                            "text": "Normal Range"
                        }
                    }
                ],
                "resourceType": "Observation",
                "status": "unknown",
                "subject": {
                    "reference": "Patient/smart-767980"
                },
                "text": {
                    "div": "<div xmlns=\"http://www.w3.org/1999/xhtml\">2004-08-12: Chloride SerPl-sCnc = 105 mmol/L</div>",
                    "status": "generated"
                },
                "valueQuantity": {
                    "code": "mmol/L",
                    "system": "http://unitsofmeasure.org",
                    "unit": "mmol/L",
                    "value": 105
                },
                "meta": {
                    "tag": [
                        {
                            "system": "https://smarthealthit.org/tags",
                            "code": "smart-7-2017"
                        }
                    ]
                }
            },
            "fullUrl": "/Observation/smart-1760-lab"
        },
        {
            "request": {
                "method": "PUT",
                "url": "Observation/smart-1761-lab"
            },
            "resource": {
                "category": [
                    {
                        "coding": [
                            {
                                "code": "laboratory",
                                "display": "Laboratory",
                                "system": "http://hl7.org/fhir/observation-category"
                            }
                        ],
                        "text": "Laboratory"
                    }
                ],
                "code": {
                    "coding": [
                        {
                            "code": "26511-6",
                            "display": "Neutrophils NFr Bld",
                            "system": "http://loinc.org"
                        }
                    ],
                    "text": "Neutrophils NFr Bld"
                },
                "effectiveDateTime": "2004-08-12",
                "id": "smart-1761-lab",
                "identifier": [
                    {
                        "system": "http://www.bmc.nl/zorgportal/identifiers/observations",
                        "use": "official",
                        "value": "smart-1761-lab"
                    }
                ],
                "performer": [
                    {
                        "reference": "Practitioner/smart-Practitioner-71032702"
                    }
                ],
                "referenceRange": [
                    {
                        "high": {
                            "code": "%",
                            "system": "http://unitsofmeasure.org",
                            "unit": "%",
                            "value": 74
                        },
                        "low": {
                            "code": "%",
                            "system": "http://unitsofmeasure.org",
                            "unit": "%",
                            "value": 44
                        },
                        "type": {
                            "coding": [
                                {
                                    "code": "normal",
                                    "display": "Normal Range",
                                    "system": "http://hl7.org/fhir/referencerange-meaning"
                                }
                            ],
                            "text": "Normal Range"
                        }
                    }
                ],
                "resourceType": "Observation",
                "status": "unknown",
                "subject": {
                    "reference": "Patient/smart-767980"
                },
                "text": {
                    "div": "<div xmlns=\"http://www.w3.org/1999/xhtml\">2004-08-12: Neutrophils NFr Bld = 65 %</div>",
                    "status": "generated"
                },
                "valueQuantity": {
                    "code": "%",
                    "system": "http://unitsofmeasure.org",
                    "unit": "%",
                    "value": 65
                },
                "meta": {
                    "tag": [
                        {
                            "system": "https://smarthealthit.org/tags",
                            "code": "smart-7-2017"
                        }
                    ]
                }
            },
            "fullUrl": "/Observation/smart-1761-lab"
        },
        {
            "request": {
                "method": "PUT",
                "url": "Observation/smart-1762-lab"
            },
            "resource": {
                "category": [
                    {
                        "coding": [
                            {
                                "code": "laboratory",
                                "display": "Laboratory",
                                "system": "http://hl7.org/fhir/observation-category"
                            }
                        ],
                        "text": "Laboratory"
                    }
                ],
                "code": {
                    "coding": [
                        {
                            "code": "26478-8",
                            "display": "Lymphocytes NFr Bld",
                            "system": "http://loinc.org"
                        }
                    ],
                    "text": "Lymphocytes NFr Bld"
                },
                "effectiveDateTime": "2004-08-12",
                "id": "smart-1762-lab",
                "identifier": [
                    {
                        "system": "http://www.bmc.nl/zorgportal/identifiers/observations",
                        "use": "official",
                        "value": "smart-1762-lab"
                    }
                ],
                "performer": [
                    {
                        "reference": "Practitioner/smart-Practitioner-71032702"
                    }
                ],
                "referenceRange": [
                    {
                        "high": {
                            "code": "%",
                            "system": "http://unitsofmeasure.org",
                            "unit": "%",
                            "value": 50
                        },
                        "low": {
                            "code": "%",
                            "system": "http://unitsofmeasure.org",
                            "unit": "%",
                            "value": 20
                        },
                        "type": {
                            "coding": [
                                {
                                    "code": "normal",
                                    "display": "Normal Range",
                                    "system": "http://hl7.org/fhir/referencerange-meaning"
                                }
                            ],
                            "text": "Normal Range"
                        }
                    }
                ],
                "resourceType": "Observation",
                "status": "unknown",
                "subject": {
                    "reference": "Patient/smart-767980"
                },
                "text": {
                    "div": "<div xmlns=\"http://www.w3.org/1999/xhtml\">2004-08-12: Lymphocytes NFr Bld = 27 %</div>",
                    "status": "generated"
                },
                "valueQuantity": {
                    "code": "%",
                    "system": "http://unitsofmeasure.org",
                    "unit": "%",
                    "value": 27
                },
                "meta": {
                    "tag": [
                        {
                            "system": "https://smarthealthit.org/tags",
                            "code": "smart-7-2017"
                        }
                    ]
                }
            },
            "fullUrl": "/Observation/smart-1762-lab"
        },
        {
            "request": {
                "method": "PUT",
                "url": "Observation/smart-1763-lab"
            },
            "resource": {
                "category": [
                    {
                        "coding": [
                            {
                                "code": "laboratory",
                                "display": "Laboratory",
                                "system": "http://hl7.org/fhir/observation-category"
                            }
                        ],
                        "text": "Laboratory"
                    }
                ],
                "code": {
                    "coding": [
                        {
                            "code": "26450-7",
                            "display": "Eosinophil NFr Bld",
                            "system": "http://loinc.org"
                        }
                    ],
                    "text": "Eosinophil NFr Bld"
                },
                "effectiveDateTime": "2004-08-12",
                "id": "smart-1763-lab",
                "identifier": [
                    {
                        "system": "http://www.bmc.nl/zorgportal/identifiers/observations",
                        "use": "official",
                        "value": "smart-1763-lab"
                    }
                ],
                "performer": [
                    {
                        "reference": "Practitioner/smart-Practitioner-71032702"
                    }
                ],
                "referenceRange": [
                    {
                        "high": {
                            "code": "%",
                            "system": "http://unitsofmeasure.org",
                            "unit": "%",
                            "value": 7
                        },
                        "low": {
                            "code": "%",
                            "system": "http://unitsofmeasure.org",
                            "unit": "%",
                            "value": 0
                        },
                        "type": {
                            "coding": [
                                {
                                    "code": "normal",
                                    "display": "Normal Range",
                                    "system": "http://hl7.org/fhir/referencerange-meaning"
                                }
                            ],
                            "text": "Normal Range"
                        }
                    }
                ],
                "resourceType": "Observation",
                "status": "unknown",
                "subject": {
                    "reference": "Patient/smart-767980"
                },
                "text": {
                    "div": "<div xmlns=\"http://www.w3.org/1999/xhtml\">2004-08-12: Eosinophil NFr Bld = 2 %</div>",
                    "status": "generated"
                },
                "valueQuantity": {
                    "code": "%",
                    "system": "http://unitsofmeasure.org",
                    "unit": "%",
                    "value": 2
                },
                "meta": {
                    "tag": [
                        {
                            "system": "https://smarthealthit.org/tags",
                            "code": "smart-7-2017"
                        }
                    ]
                }
            },
            "fullUrl": "/Observation/smart-1763-lab"
        },
        {
            "request": {
                "method": "PUT",
                "url": "Observation/smart-1764-lab"
            },
            "resource": {
                "category": [
                    {
                        "coding": [
                            {
                                "code": "laboratory",
                                "display": "Laboratory",
                                "system": "http://hl7.org/fhir/observation-category"
                            }
                        ],
                        "text": "Laboratory"
                    }
                ],
                "code": {
                    "coding": [
                        {
                            "code": "718-7",
                            "display": "Hgb Bld-mCnc",
                            "system": "http://loinc.org"
                        }
                    ],
                    "text": "Hgb Bld-mCnc"
                },
                "effectiveDateTime": "2004-08-12",
                "id": "smart-1764-lab",
                "identifier": [
                    {
                        "system": "http://www.bmc.nl/zorgportal/identifiers/observations",
                        "use": "official",
                        "value": "smart-1764-lab"
                    }
                ],
                "performer": [
                    {
                        "reference": "Practitioner/smart-Practitioner-71032702"
                    }
                ],
                "referenceRange": [
                    {
                        "high": {
                            "code": "g/dL",
                            "system": "http://unitsofmeasure.org",
                            "unit": "g/dL",
                            "value": 18
                        },
                        "low": {
                            "code": "g/dL",
                            "system": "http://unitsofmeasure.org",
                            "unit": "g/dL",
                            "value": 13.5
                        },
                        "type": {
                            "coding": [
                                {
                                    "code": "normal",
                                    "display": "Normal Range",
                                    "system": "http://hl7.org/fhir/referencerange-meaning"
                                }
                            ],
                            "text": "Normal Range"
                        }
                    }
                ],
                "resourceType": "Observation",
                "status": "unknown",
                "subject": {
                    "reference": "Patient/smart-767980"
                },
                "text": {
                    "div": "<div xmlns=\"http://www.w3.org/1999/xhtml\">2004-08-12: Hgb Bld-mCnc = 17.5 g/dL</div>",
                    "status": "generated"
                },
                "valueQuantity": {
                    "code": "g/dL",
                    "system": "http://unitsofmeasure.org",
                    "unit": "g/dL",
                    "value": 17.5
                },
                "meta": {
                    "tag": [
                        {
                            "system": "https://smarthealthit.org/tags",
                            "code": "smart-7-2017"
                        }
                    ]
                }
            },
            "fullUrl": "/Observation/smart-1764-lab"
        },
        {
            "request": {
                "method": "PUT",
                "url": "Observation/smart-1765-lab"
            },
            "resource": {
                "category": [
                    {
                        "coding": [
                            {
                                "code": "laboratory",
                                "display": "Laboratory",
                                "system": "http://hl7.org/fhir/observation-category"
                            }
                        ],
                        "text": "Laboratory"
                    }
                ],
                "code": {
                    "coding": [
                        {
                            "code": "26464-8",
                            "display": "WBC # Bld",
                            "system": "http://loinc.org"
                        }
                    ],
                    "text": "WBC # Bld"
                },
                "effectiveDateTime": "2004-08-12",
                "id": "smart-1765-lab",
                "identifier": [
                    {
                        "system": "http://www.bmc.nl/zorgportal/identifiers/observations",
                        "use": "official",
                        "value": "smart-1765-lab"
                    }
                ],
                "performer": [
                    {
                        "reference": "Practitioner/smart-Practitioner-71032702"
                    }
                ],
                "referenceRange": [
                    {
                        "high": {
                            "code": "10*3/uL",
                            "system": "http://unitsofmeasure.org",
                            "unit": "10*3/uL",
                            "value": 10.5
                        },
                        "low": {
                            "code": "10*3/uL",
                            "system": "http://unitsofmeasure.org",
                            "unit": "10*3/uL",
                            "value": 4
                        },
                        "type": {
                            "coding": [
                                {
                                    "code": "normal",
                                    "display": "Normal Range",
                                    "system": "http://hl7.org/fhir/referencerange-meaning"
                                }
                            ],
                            "text": "Normal Range"
                        }
                    }
                ],
                "resourceType": "Observation",
                "status": "unknown",
                "subject": {
                    "reference": "Patient/smart-767980"
                },
                "text": {
                    "div": "<div xmlns=\"http://www.w3.org/1999/xhtml\">2004-08-12: WBC # Bld = 9.8 10*3/uL</div>",
                    "status": "generated"
                },
                "valueQuantity": {
                    "code": "10*3/uL",
                    "system": "http://unitsofmeasure.org",
                    "unit": "10*3/uL",
                    "value": 9.8
                },
                "meta": {
                    "tag": [
                        {
                            "system": "https://smarthealthit.org/tags",
                            "code": "smart-7-2017"
                        }
                    ]
                }
            },
            "fullUrl": "/Observation/smart-1765-lab"
        },
        {
            "request": {
                "method": "PUT",
                "url": "Observation/smart-1766-lab"
            },
            "resource": {
                "category": [
                    {
                        "coding": [
                            {
                                "code": "laboratory",
                                "display": "Laboratory",
                                "system": "http://hl7.org/fhir/observation-category"
                            }
                        ],
                        "text": "Laboratory"
                    }
                ],
                "code": {
                    "coding": [
                        {
                            "code": "789-8",
                            "display": "RBC # Bld Auto",
                            "system": "http://loinc.org"
                        }
                    ],
                    "text": "RBC # Bld Auto"
                },
                "effectiveDateTime": "2004-08-12",
                "id": "smart-1766-lab",
                "identifier": [
                    {
                        "system": "http://www.bmc.nl/zorgportal/identifiers/observations",
                        "use": "official",
                        "value": "smart-1766-lab"
                    }
                ],
                "performer": [
                    {
                        "reference": "Practitioner/smart-Practitioner-71032702"
                    }
                ],
                "referenceRange": [
                    {
                        "high": {
                            "code": "10*6/uL",
                            "system": "http://unitsofmeasure.org",
                            "unit": "10*6/uL",
                            "value": 6
                        },
                        "low": {
                            "code": "10*6/uL",
                            "system": "http://unitsofmeasure.org",
                            "unit": "10*6/uL",
                            "value": 4.7
                        },
                        "type": {
                            "coding": [
                                {
                                    "code": "normal",
                                    "display": "Normal Range",
                                    "system": "http://hl7.org/fhir/referencerange-meaning"
                                }
                            ],
                            "text": "Normal Range"
                        }
                    }
                ],
                "resourceType": "Observation",
                "status": "unknown",
                "subject": {
                    "reference": "Patient/smart-767980"
                },
                "text": {
                    "div": "<div xmlns=\"http://www.w3.org/1999/xhtml\">2004-08-12: RBC # Bld Auto = 5.44 10*6/uL</div>",
                    "status": "generated"
                },
                "valueQuantity": {
                    "code": "10*6/uL",
                    "system": "http://unitsofmeasure.org",
                    "unit": "10*6/uL",
                    "value": 5.44
                },
                "meta": {
                    "tag": [
                        {
                            "system": "https://smarthealthit.org/tags",
                            "code": "smart-7-2017"
                        }
                    ]
                }
            },
            "fullUrl": "/Observation/smart-1766-lab"
        },
        {
            "request": {
                "method": "PUT",
                "url": "Observation/smart-1767-lab"
            },
            "resource": {
                "category": [
                    {
                        "coding": [
                            {
                                "code": "laboratory",
                                "display": "Laboratory",
                                "system": "http://hl7.org/fhir/observation-category"
                            }
                        ],
                        "text": "Laboratory"
                    }
                ],
                "code": {
                    "coding": [
                        {
                            "code": "26515-7",
                            "display": "Platelet # Bld",
                            "system": "http://loinc.org"
                        }
                    ],
                    "text": "Platelet # Bld"
                },
                "effectiveDateTime": "2004-08-12",
                "id": "smart-1767-lab",
                "identifier": [
                    {
                        "system": "http://www.bmc.nl/zorgportal/identifiers/observations",
                        "use": "official",
                        "value": "smart-1767-lab"
                    }
                ],
                "performer": [
                    {
                        "reference": "Practitioner/smart-Practitioner-71032702"
                    }
                ],
                "referenceRange": [
                    {
                        "high": {
                            "code": "10*3/uL",
                            "system": "http://unitsofmeasure.org",
                            "unit": "10*3/uL",
                            "value": 450
                        },
                        "low": {
                            "code": "10*3/uL",
                            "system": "http://unitsofmeasure.org",
                            "unit": "10*3/uL",
                            "value": 150
                        },
                        "type": {
                            "coding": [
                                {
                                    "code": "normal",
                                    "display": "Normal Range",
                                    "system": "http://hl7.org/fhir/referencerange-meaning"
                                }
                            ],
                            "text": "Normal Range"
                        }
                    }
                ],
                "resourceType": "Observation",
                "status": "unknown",
                "subject": {
                    "reference": "Patient/smart-767980"
                },
                "text": {
                    "div": "<div xmlns=\"http://www.w3.org/1999/xhtml\">2004-08-12: Platelet # Bld = 248 10*3/uL</div>",
                    "status": "generated"
                },
                "valueQuantity": {
                    "code": "10*3/uL",
                    "system": "http://unitsofmeasure.org",
                    "unit": "10*3/uL",
                    "value": 248
                },
                "meta": {
                    "tag": [
                        {
                            "system": "https://smarthealthit.org/tags",
                            "code": "smart-7-2017"
                        }
                    ]
                }
            },
            "fullUrl": "/Observation/smart-1767-lab"
        },
        {
            "request": {
                "method": "PUT",
                "url": "Observation/smart-1768-lab"
            },
            "resource": {
                "category": [
                    {
                        "coding": [
                            {
                                "code": "laboratory",
                                "display": "Laboratory",
                                "system": "http://hl7.org/fhir/observation-category"
                            }
                        ],
                        "text": "Laboratory"
                    }
                ],
                "code": {
                    "coding": [
                        {
                            "code": "30428-7",
                            "display": "MCV RBC",
                            "system": "http://loinc.org"
                        }
                    ],
                    "text": "MCV RBC"
                },
                "effectiveDateTime": "2004-08-12",
                "id": "smart-1768-lab",
                "identifier": [
                    {
                        "system": "http://www.bmc.nl/zorgportal/identifiers/observations",
                        "use": "official",
                        "value": "smart-1768-lab"
                    }
                ],
                "performer": [
                    {
                        "reference": "Practitioner/smart-Practitioner-71032702"
                    }
                ],
                "referenceRange": [
                    {
                        "high": {
                            "code": "fL",
                            "system": "http://unitsofmeasure.org",
                            "unit": "fL",
                            "value": 100
                        },
                        "low": {
                            "code": "fL",
                            "system": "http://unitsofmeasure.org",
                            "unit": "fL",
                            "value": 78
                        },
                        "type": {
                            "coding": [
                                {
                                    "code": "normal",
                                    "display": "Normal Range",
                                    "system": "http://hl7.org/fhir/referencerange-meaning"
                                }
                            ],
                            "text": "Normal Range"
                        }
                    }
                ],
                "resourceType": "Observation",
                "status": "unknown",
                "subject": {
                    "reference": "Patient/smart-767980"
                },
                "text": {
                    "div": "<div xmlns=\"http://www.w3.org/1999/xhtml\">2004-08-12: MCV RBC = 90.8 fL</div>",
                    "status": "generated"
                },
                "valueQuantity": {
                    "code": "fL",
                    "system": "http://unitsofmeasure.org",
                    "unit": "fL",
                    "value": 90.8
                },
                "meta": {
                    "tag": [
                        {
                            "system": "https://smarthealthit.org/tags",
                            "code": "smart-7-2017"
                        }
                    ]
                }
            },
            "fullUrl": "/Observation/smart-1768-lab"
        },
        {
            "request": {
                "method": "PUT",
                "url": "Observation/smart-1769-lab"
            },
            "resource": {
                "category": [
                    {
                        "coding": [
                            {
                                "code": "laboratory",
                                "display": "Laboratory",
                                "system": "http://hl7.org/fhir/observation-category"
                            }
                        ],
                        "text": "Laboratory"
                    }
                ],
                "code": {
                    "coding": [
                        {
                            "code": "785-6",
                            "display": "MCH RBC Qn Auto",
                            "system": "http://loinc.org"
                        }
                    ],
                    "text": "MCH RBC Qn Auto"
                },
                "effectiveDateTime": "2004-08-12",
                "id": "smart-1769-lab",
                "identifier": [
                    {
                        "system": "http://www.bmc.nl/zorgportal/identifiers/observations",
                        "use": "official",
                        "value": "smart-1769-lab"
                    }
                ],
                "performer": [
                    {
                        "reference": "Practitioner/smart-Practitioner-71032702"
                    }
                ],
                "referenceRange": [
                    {
                        "high": {
                            "code": "pg",
                            "system": "http://unitsofmeasure.org",
                            "unit": "pg",
                            "value": 31
                        },
                        "low": {
                            "code": "pg",
                            "system": "http://unitsofmeasure.org",
                            "unit": "pg",
                            "value": 27
                        },
                        "type": {
                            "coding": [
                                {
                                    "code": "normal",
                                    "display": "Normal Range",
                                    "system": "http://hl7.org/fhir/referencerange-meaning"
                                }
                            ],
                            "text": "Normal Range"
                        }
                    }
                ],
                "resourceType": "Observation",
                "status": "unknown",
                "subject": {
                    "reference": "Patient/smart-767980"
                },
                "text": {
                    "div": "<div xmlns=\"http://www.w3.org/1999/xhtml\">2004-08-12: MCH RBC Qn Auto = 32.2 pg</div>",
                    "status": "generated"
                },
                "valueQuantity": {
                    "code": "pg",
                    "system": "http://unitsofmeasure.org",
                    "unit": "pg",
                    "value": 32.2
                },
                "meta": {
                    "tag": [
                        {
                            "system": "https://smarthealthit.org/tags",
                            "code": "smart-7-2017"
                        }
                    ]
                }
            },
            "fullUrl": "/Observation/smart-1769-lab"
        },
        {
            "request": {
                "method": "PUT",
                "url": "Observation/smart-1770-lab"
            },
            "resource": {
                "category": [
                    {
                        "coding": [
                            {
                                "code": "laboratory",
                                "display": "Laboratory",
                                "system": "http://hl7.org/fhir/observation-category"
                            }
                        ],
                        "text": "Laboratory"
                    }
                ],
                "code": {
                    "coding": [
                        {
                            "code": "786-4",
                            "display": "MCHC RBC Auto-mCnc",
                            "system": "http://loinc.org"
                        }
                    ],
                    "text": "MCHC RBC Auto-mCnc"
                },
                "effectiveDateTime": "2004-08-12",
                "id": "smart-1770-lab",
                "identifier": [
                    {
                        "system": "http://www.bmc.nl/zorgportal/identifiers/observations",
                        "use": "official",
                        "value": "smart-1770-lab"
                    }
                ],
                "performer": [
                    {
                        "reference": "Practitioner/smart-Practitioner-71032702"
                    }
                ],
                "referenceRange": [
                    {
                        "high": {
                            "code": "g/dL",
                            "system": "http://unitsofmeasure.org",
                            "unit": "g/dL",
                            "value": 36
                        },
                        "low": {
                            "code": "g/dL",
                            "system": "http://unitsofmeasure.org",
                            "unit": "g/dL",
                            "value": 32
                        },
                        "type": {
                            "coding": [
                                {
                                    "code": "normal",
                                    "display": "Normal Range",
                                    "system": "http://hl7.org/fhir/referencerange-meaning"
                                }
                            ],
                            "text": "Normal Range"
                        }
                    }
                ],
                "resourceType": "Observation",
                "status": "unknown",
                "subject": {
                    "reference": "Patient/smart-767980"
                },
                "text": {
                    "div": "<div xmlns=\"http://www.w3.org/1999/xhtml\">2004-08-12: MCHC RBC Auto-mCnc = 35.5 g/dL</div>",
                    "status": "generated"
                },
                "valueQuantity": {
                    "code": "g/dL",
                    "system": "http://unitsofmeasure.org",
                    "unit": "g/dL",
                    "value": 35.5
                },
                "meta": {
                    "tag": [
                        {
                            "system": "https://smarthealthit.org/tags",
                            "code": "smart-7-2017"
                        }
                    ]
                }
            },
            "fullUrl": "/Observation/smart-1770-lab"
        },
        {
            "request": {
                "method": "PUT",
                "url": "MedicationRequest/smart-MedicationRequest-52"
            },
            "resource": {
                "dispenseRequest": {
                    "expectedSupplyDuration": {
                        "code": "d",
                        "system": "http://unitsofmeasure.org",
                        "unit": "days",
                        "value": 10
                    },
                    "numberOfRepeatsAllowed": 1,
                    "quantity": {
                        "code": "{tablet}",
                        "system": "http://unitsofmeasure.org",
                        "unit": "{tablet}",
                        "value": 40
                    }
                },
                "dosageInstruction": [
                    {
                        "doseQuantity": {
                            "code": "{tablet}",
                            "system": "http://unitsofmeasure.org",
                            "unit": "{tablet}",
                            "value": 1
                        },
                        "text": "1 qid",
                        "timing": {
                            "repeat": {
                                "boundsPeriod": {
                                    "start": "2004-10-18"
                                },
                                "frequency": 4,
                                "period": 1,
                                "periodUnit": "d"
                            }
                        }
                    }
                ],
                "id": "smart-MedicationRequest-52",
                "intent": "order",
                "medicationCodeableConcept": {
                    "coding": [
                        {
                            "code": "309114",
                            "display": "Cephalexin 500 MG Oral Capsule",
                            "system": "http://www.nlm.nih.gov/research/umls/rxnorm"
                        }
                    ],
                    "text": "Cephalexin 500 MG Oral Capsule"
                },
                "resourceType": "MedicationRequest",
                "status": "active",
                "subject": {
                    "reference": "Patient/smart-767980"
                },
                "text": {
                    "div": "<div xmlns=\"http://www.w3.org/1999/xhtml\">Cephalexin 500 MG Oral Capsule (rxnorm: 309114)</div>",
                    "status": "generated"
                },
                "meta": {
                    "tag": [
                        {
                            "system": "https://smarthealthit.org/tags",
                            "code": "smart-7-2017"
                        }
                    ]
                }
            },
            "fullUrl": "/MedicationRequest/smart-MedicationRequest-52"
        },
        {
            "request": {
                "method": "PUT",
                "url": "MedicationDispense/smart-MedicationDispense-544"
            },
            "resource": {
                "authorizingPrescription": [
                    {
                        "reference": "MedicationRequest/smart-MedicationRequest-52"
                    }
                ],
                "daysSupply": {
                    "code": "d",
                    "system": "http://unitsofmeasure.org",
                    "unit": "days",
                    "value": 10
                },
                "id": "smart-MedicationDispense-544",
                "medicationCodeableConcept": {
                    "coding": [
                        {
                            "code": "309114",
                            "display": "Cephalexin 500 MG Oral Capsule",
                            "system": "http://www.nlm.nih.gov/research/umls/rxnorm"
                        }
                    ],
                    "text": "Cephalexin 500 MG Oral Capsule"
                },
                "quantity": {
                    "code": "{tablets}",
                    "system": "http://unitsofmeasure.org",
                    "unit": "tablets",
                    "value": 40
                },
                "resourceType": "MedicationDispense",
                "status": "completed",
                "subject": {
                    "reference": "Patient/smart-767980"
                },
                "text": {
                    "div": "<div xmlns=\"http://www.w3.org/1999/xhtml\">Dispensed 40 tablets = 10 day supply of Cephalexin 500 MG Oral Capsule</div>",
                    "status": "generated"
                },
                "whenHandedOver": "2004-12-10",
                "meta": {
                    "tag": [
                        {
                            "system": "https://smarthealthit.org/tags",
                            "code": "smart-7-2017"
                        }
                    ]
                }
            },
            "fullUrl": "/MedicationDispense/smart-MedicationDispense-544"
        },
        {
            "request": {
                "method": "PUT",
                "url": "MedicationDispense/smart-MedicationDispense-543"
            },
            "resource": {
                "authorizingPrescription": [
                    {
                        "reference": "MedicationRequest/smart-MedicationRequest-52"
                    }
                ],
                "daysSupply": {
                    "code": "d",
                    "system": "http://unitsofmeasure.org",
                    "unit": "days",
                    "value": 10
                },
                "id": "smart-MedicationDispense-543",
                "medicationCodeableConcept": {
                    "coding": [
                        {
                            "code": "309114",
                            "display": "Cephalexin 500 MG Oral Capsule",
                            "system": "http://www.nlm.nih.gov/research/umls/rxnorm"
                        }
                    ],
                    "text": "Cephalexin 500 MG Oral Capsule"
                },
                "quantity": {
                    "code": "{tablets}",
                    "system": "http://unitsofmeasure.org",
                    "unit": "tablets",
                    "value": 40
                },
                "resourceType": "MedicationDispense",
                "status": "completed",
                "subject": {
                    "reference": "Patient/smart-767980"
                },
                "text": {
                    "div": "<div xmlns=\"http://www.w3.org/1999/xhtml\">Dispensed 40 tablets = 10 day supply of Cephalexin 500 MG Oral Capsule</div>",
                    "status": "generated"
                },
                "whenHandedOver": "2004-10-18",
                "meta": {
                    "tag": [
                        {
                            "system": "https://smarthealthit.org/tags",
                            "code": "smart-7-2017"
                        }
                    ]
                }
            },
            "fullUrl": "/MedicationDispense/smart-MedicationDispense-543"
        },
        {
            "request": {
                "method": "PUT",
                "url": "MedicationDispense/smart-MedicationDispense-545"
            },
            "resource": {
                "authorizingPrescription": [
                    {
                        "reference": "MedicationRequest/smart-MedicationRequest-52"
                    }
                ],
                "daysSupply": {
                    "code": "d",
                    "system": "http://unitsofmeasure.org",
                    "unit": "days",
                    "value": 10
                },
                "id": "smart-MedicationDispense-545",
                "medicationCodeableConcept": {
                    "coding": [
                        {
                            "code": "309114",
                            "display": "Cephalexin 500 MG Oral Capsule",
                            "system": "http://www.nlm.nih.gov/research/umls/rxnorm"
                        }
                    ],
                    "text": "Cephalexin 500 MG Oral Capsule"
                },
                "quantity": {
                    "code": "{tablets}",
                    "system": "http://unitsofmeasure.org",
                    "unit": "tablets",
                    "value": 40
                },
                "resourceType": "MedicationDispense",
                "status": "completed",
                "subject": {
                    "reference": "Patient/smart-767980"
                },
                "text": {
                    "div": "<div xmlns=\"http://www.w3.org/1999/xhtml\">Dispensed 40 tablets = 10 day supply of Cephalexin 500 MG Oral Capsule</div>",
                    "status": "generated"
                },
                "whenHandedOver": "2005-11-11",
                "meta": {
                    "tag": [
                        {
                            "system": "https://smarthealthit.org/tags",
                            "code": "smart-7-2017"
                        }
                    ]
                }
            },
            "fullUrl": "/MedicationDispense/smart-MedicationDispense-545"
        },
        {
            "request": {
                "method": "PUT",
                "url": "MedicationRequest/smart-MedicationRequest-53"
            },
            "resource": {
                "dispenseRequest": {
                    "expectedSupplyDuration": {
                        "code": "d",
                        "system": "http://unitsofmeasure.org",
                        "unit": "days",
                        "value": 30
                    },
                    "numberOfRepeatsAllowed": 1,
                    "quantity": {
                        "code": "{tablet}",
                        "system": "http://unitsofmeasure.org",
                        "unit": "{tablet}",
                        "value": 60
                    }
                },
                "dosageInstruction": [
                    {
                        "doseQuantity": {
                            "code": "{tablet}",
                            "system": "http://unitsofmeasure.org",
                            "unit": "{tablet}",
                            "value": 1
                        },
                        "text": "1 bid",
                        "timing": {
                            "repeat": {
                                "boundsPeriod": {
                                    "start": "2004-10-29"
                                },
                                "frequency": 2,
                                "period": 1,
                                "periodUnit": "d"
                            }
                        }
                    }
                ],
                "id": "smart-MedicationRequest-53",
                "intent": "order",
                "medicationCodeableConcept": {
                    "coding": [
                        {
                            "code": "866514",
                            "display": "Metoprolol 50 MG Oral Tablet",
                            "system": "http://www.nlm.nih.gov/research/umls/rxnorm"
                        }
                    ],
                    "text": "Metoprolol 50 MG Oral Tablet"
                },
                "resourceType": "MedicationRequest",
                "status": "active",
                "subject": {
                    "reference": "Patient/smart-767980"
                },
                "text": {
                    "div": "<div xmlns=\"http://www.w3.org/1999/xhtml\">Metoprolol 50 MG Oral Tablet (rxnorm: 866514)</div>",
                    "status": "generated"
                },
                "meta": {
                    "tag": [
                        {
                            "system": "https://smarthealthit.org/tags",
                            "code": "smart-7-2017"
                        }
                    ]
                }
            },
            "fullUrl": "/MedicationRequest/smart-MedicationRequest-53"
        },
        {
            "request": {
                "method": "PUT",
                "url": "MedicationDispense/smart-MedicationDispense-547"
            },
            "resource": {
                "authorizingPrescription": [
                    {
                        "reference": "MedicationRequest/smart-MedicationRequest-53"
                    }
                ],
                "daysSupply": {
                    "code": "d",
                    "system": "http://unitsofmeasure.org",
                    "unit": "days",
                    "value": 30
                },
                "id": "smart-MedicationDispense-547",
                "medicationCodeableConcept": {
                    "coding": [
                        {
                            "code": "866514",
                            "display": "Metoprolol 50 MG Oral Tablet",
                            "system": "http://www.nlm.nih.gov/research/umls/rxnorm"
                        }
                    ],
                    "text": "Metoprolol 50 MG Oral Tablet"
                },
                "quantity": {
                    "code": "{tablets}",
                    "system": "http://unitsofmeasure.org",
                    "unit": "tablets",
                    "value": 60
                },
                "resourceType": "MedicationDispense",
                "status": "completed",
                "subject": {
                    "reference": "Patient/smart-767980"
                },
                "text": {
                    "div": "<div xmlns=\"http://www.w3.org/1999/xhtml\">Dispensed 60 tablets = 30 day supply of Metoprolol 50 MG Oral Tablet</div>",
                    "status": "generated"
                },
                "whenHandedOver": "2004-10-29",
                "meta": {
                    "tag": [
                        {
                            "system": "https://smarthealthit.org/tags",
                            "code": "smart-7-2017"
                        }
                    ]
                }
            },
            "fullUrl": "/MedicationDispense/smart-MedicationDispense-547"
        },
        {
            "request": {
                "method": "PUT",
                "url": "MedicationRequest/smart-MedicationRequest-54"
            },
            "resource": {
                "dispenseRequest": {
                    "expectedSupplyDuration": {
                        "code": "d",
                        "system": "http://unitsofmeasure.org",
                        "unit": "days",
                        "value": 10
                    },
                    "numberOfRepeatsAllowed": 1,
                    "quantity": {
                        "code": "{tablet}",
                        "system": "http://unitsofmeasure.org",
                        "unit": "{tablet}",
                        "value": 20
                    }
                },
                "dosageInstruction": [
                    {
                        "doseQuantity": {
                            "code": "{tablet}",
                            "system": "http://unitsofmeasure.org",
                            "unit": "{tablet}",
                            "value": 1
                        },
                        "text": "1 bid",
                        "timing": {
                            "repeat": {
                                "boundsPeriod": {
                                    "start": "2004-12-10"
                                },
                                "frequency": 2,
                                "period": 1,
                                "periodUnit": "d"
                            }
                        }
                    }
                ],
                "id": "smart-MedicationRequest-54",
                "intent": "order",
                "medicationCodeableConcept": {
                    "coding": [
                        {
                            "code": "283342",
                            "display": "Guaifenesin 600 MG / Phenylephrine 30 MG Extended Release Tablet [Crantex LA]",
                            "system": "http://www.nlm.nih.gov/research/umls/rxnorm"
                        }
                    ],
                    "text": "Guaifenesin 600 MG / Phenylephrine 30 MG Extended Release Tablet [Crantex LA]"
                },
                "resourceType": "MedicationRequest",
                "status": "active",
                "subject": {
                    "reference": "Patient/smart-767980"
                },
                "text": {
                    "div": "<div xmlns=\"http://www.w3.org/1999/xhtml\">Guaifenesin 600 MG / Phenylephrine 30 MG Extended Release Tablet [Crantex LA] (rxnorm: 283342)</div>",
                    "status": "generated"
                },
                "meta": {
                    "tag": [
                        {
                            "system": "https://smarthealthit.org/tags",
                            "code": "smart-7-2017"
                        }
                    ]
                }
            },
            "fullUrl": "/MedicationRequest/smart-MedicationRequest-54"
        },
        {
            "request": {
                "method": "PUT",
                "url": "MedicationDispense/smart-MedicationDispense-540"
            },
            "resource": {
                "authorizingPrescription": [
                    {
                        "reference": "MedicationRequest/smart-MedicationRequest-54"
                    }
                ],
                "daysSupply": {
                    "code": "d",
                    "system": "http://unitsofmeasure.org",
                    "unit": "days",
                    "value": 10
                },
                "id": "smart-MedicationDispense-540",
                "medicationCodeableConcept": {
                    "coding": [
                        {
                            "code": "283342",
                            "display": "Guaifenesin 600 MG / Phenylephrine 30 MG Extended Release Tablet [Crantex LA]",
                            "system": "http://www.nlm.nih.gov/research/umls/rxnorm"
                        }
                    ],
                    "text": "Guaifenesin 600 MG / Phenylephrine 30 MG Extended Release Tablet [Crantex LA]"
                },
                "quantity": {
                    "code": "{tablets}",
                    "system": "http://unitsofmeasure.org",
                    "unit": "tablets",
                    "value": 20
                },
                "resourceType": "MedicationDispense",
                "status": "completed",
                "subject": {
                    "reference": "Patient/smart-767980"
                },
                "text": {
                    "div": "<div xmlns=\"http://www.w3.org/1999/xhtml\">Dispensed 20 tablets = 10 day supply of Guaifenesin 600 MG / Phenylephrine 30 MG Extended Release Tablet [Crantex LA]</div>",
                    "status": "generated"
                },
                "whenHandedOver": "2004-12-10",
                "meta": {
                    "tag": [
                        {
                            "system": "https://smarthealthit.org/tags",
                            "code": "smart-7-2017"
                        }
                    ]
                }
            },
            "fullUrl": "/MedicationDispense/smart-MedicationDispense-540"
        },
        {
            "request": {
                "method": "PUT",
                "url": "MedicationRequest/smart-MedicationRequest-55"
            },
            "resource": {
                "dispenseRequest": {
                    "expectedSupplyDuration": {
                        "code": "d",
                        "system": "http://unitsofmeasure.org",
                        "unit": "days",
                        "value": 30
                    },
                    "numberOfRepeatsAllowed": 1,
                    "quantity": {
                        "code": "{tablet}",
                        "system": "http://unitsofmeasure.org",
                        "unit": "{tablet}",
                        "value": 60
                    }
                },
                "dosageInstruction": [
                    {
                        "doseQuantity": {
                            "code": "{tablet}",
                            "system": "http://unitsofmeasure.org",
                            "unit": "{tablet}",
                            "value": 1
                        },
                        "text": "1 bid",
                        "timing": {
                            "repeat": {
                                "boundsPeriod": {
                                    "start": "2004-12-10"
                                },
                                "frequency": 2,
                                "period": 1,
                                "periodUnit": "d"
                            }
                        }
                    }
                ],
                "id": "smart-MedicationRequest-55",
                "intent": "order",
                "medicationCodeableConcept": {
                    "coding": [
                        {
                            "code": "861007",
                            "display": "Metformin 500 MG Oral Tablet",
                            "system": "http://www.nlm.nih.gov/research/umls/rxnorm"
                        }
                    ],
                    "text": "Metformin 500 MG Oral Tablet"
                },
                "resourceType": "MedicationRequest",
                "status": "active",
                "subject": {
                    "reference": "Patient/smart-767980"
                },
                "text": {
                    "div": "<div xmlns=\"http://www.w3.org/1999/xhtml\">Metformin 500 MG Oral Tablet (rxnorm: 861007)</div>",
                    "status": "generated"
                },
                "meta": {
                    "tag": [
                        {
                            "system": "https://smarthealthit.org/tags",
                            "code": "smart-7-2017"
                        }
                    ]
                }
            },
            "fullUrl": "/MedicationRequest/smart-MedicationRequest-55"
        },
        {
            "request": {
                "method": "PUT",
                "url": "MedicationDispense/smart-MedicationDispense-551"
            },
            "resource": {
                "authorizingPrescription": [
                    {
                        "reference": "MedicationRequest/smart-MedicationRequest-55"
                    }
                ],
                "daysSupply": {
                    "code": "d",
                    "system": "http://unitsofmeasure.org",
                    "unit": "days",
                    "value": 30
                },
                "id": "smart-MedicationDispense-551",
                "medicationCodeableConcept": {
                    "coding": [
                        {
                            "code": "861007",
                            "display": "Metformin 500 MG Oral Tablet",
                            "system": "http://www.nlm.nih.gov/research/umls/rxnorm"
                        }
                    ],
                    "text": "Metformin 500 MG Oral Tablet"
                },
                "quantity": {
                    "code": "{tablets}",
                    "system": "http://unitsofmeasure.org",
                    "unit": "tablets",
                    "value": 60
                },
                "resourceType": "MedicationDispense",
                "status": "completed",
                "subject": {
                    "reference": "Patient/smart-767980"
                },
                "text": {
                    "div": "<div xmlns=\"http://www.w3.org/1999/xhtml\">Dispensed 60 tablets = 30 day supply of Metformin 500 MG Oral Tablet</div>",
                    "status": "generated"
                },
                "whenHandedOver": "2005-01-05",
                "meta": {
                    "tag": [
                        {
                            "system": "https://smarthealthit.org/tags",
                            "code": "smart-7-2017"
                        }
                    ]
                }
            },
            "fullUrl": "/MedicationDispense/smart-MedicationDispense-551"
        },
        {
            "request": {
                "method": "PUT",
                "url": "MedicationDispense/smart-MedicationDispense-550"
            },
            "resource": {
                "authorizingPrescription": [
                    {
                        "reference": "MedicationRequest/smart-MedicationRequest-55"
                    }
                ],
                "daysSupply": {
                    "code": "d",
                    "system": "http://unitsofmeasure.org",
                    "unit": "days",
                    "value": 30
                },
                "id": "smart-MedicationDispense-550",
                "medicationCodeableConcept": {
                    "coding": [
                        {
                            "code": "861007",
                            "display": "Metformin 500 MG Oral Tablet",
                            "system": "http://www.nlm.nih.gov/research/umls/rxnorm"
                        }
                    ],
                    "text": "Metformin 500 MG Oral Tablet"
                },
                "quantity": {
                    "code": "{tablets}",
                    "system": "http://unitsofmeasure.org",
                    "unit": "tablets",
                    "value": 60
                },
                "resourceType": "MedicationDispense",
                "status": "completed",
                "subject": {
                    "reference": "Patient/smart-767980"
                },
                "text": {
                    "div": "<div xmlns=\"http://www.w3.org/1999/xhtml\">Dispensed 60 tablets = 30 day supply of Metformin 500 MG Oral Tablet</div>",
                    "status": "generated"
                },
                "whenHandedOver": "2005-01-01",
                "meta": {
                    "tag": [
                        {
                            "system": "https://smarthealthit.org/tags",
                            "code": "smart-7-2017"
                        }
                    ]
                }
            },
            "fullUrl": "/MedicationDispense/smart-MedicationDispense-550"
        },
        {
            "request": {
                "method": "PUT",
                "url": "MedicationDispense/smart-MedicationDispense-549"
            },
            "resource": {
                "authorizingPrescription": [
                    {
                        "reference": "MedicationRequest/smart-MedicationRequest-55"
                    }
                ],
                "daysSupply": {
                    "code": "d",
                    "system": "http://unitsofmeasure.org",
                    "unit": "days",
                    "value": 30
                },
                "id": "smart-MedicationDispense-549",
                "medicationCodeableConcept": {
                    "coding": [
                        {
                            "code": "861007",
                            "display": "Metformin 500 MG Oral Tablet",
                            "system": "http://www.nlm.nih.gov/research/umls/rxnorm"
                        }
                    ],
                    "text": "Metformin 500 MG Oral Tablet"
                },
                "quantity": {
                    "code": "{tablets}",
                    "system": "http://unitsofmeasure.org",
                    "unit": "tablets",
                    "value": 60
                },
                "resourceType": "MedicationDispense",
                "status": "completed",
                "subject": {
                    "reference": "Patient/smart-767980"
                },
                "text": {
                    "div": "<div xmlns=\"http://www.w3.org/1999/xhtml\">Dispensed 60 tablets = 30 day supply of Metformin 500 MG Oral Tablet</div>",
                    "status": "generated"
                },
                "whenHandedOver": "2004-12-10",
                "meta": {
                    "tag": [
                        {
                            "system": "https://smarthealthit.org/tags",
                            "code": "smart-7-2017"
                        }
                    ]
                }
            },
            "fullUrl": "/MedicationDispense/smart-MedicationDispense-549"
        },
        {
            "request": {
                "method": "PUT",
                "url": "MedicationRequest/smart-MedicationRequest-56"
            },
            "resource": {
                "dispenseRequest": {
                    "expectedSupplyDuration": {
                        "code": "d",
                        "system": "http://unitsofmeasure.org",
                        "unit": "days",
                        "value": 6
                    },
                    "numberOfRepeatsAllowed": 1,
                    "quantity": {
                        "code": "mL",
                        "system": "http://unitsofmeasure.org",
                        "unit": "mL",
                        "value": 1
                    }
                },
                "dosageInstruction": [
                    {
                        "asNeededBoolean": true,
                        "doseQuantity": {
                            "code": "mL",
                            "system": "http://unitsofmeasure.org",
                            "unit": "mL",
                            "value": 5
                        },
                        "text": "5 mL q6h prn cough",
                        "timing": {
                            "repeat": {
                                "boundsPeriod": {
                                    "start": "2004-12-24"
                                },
                                "frequency": 4,
                                "period": 1,
                                "periodUnit": "d"
                            }
                        }
                    }
                ],
                "id": "smart-MedicationRequest-56",
                "intent": "order",
                "medicationCodeableConcept": {
                    "coding": [
                        {
                            "code": "309428",
                            "display": "Codeine 2 MG/ML / Guaifenesin 20 MG/ML Oral Solution",
                            "system": "http://www.nlm.nih.gov/research/umls/rxnorm"
                        }
                    ],
                    "text": "Codeine 2 MG/ML / Guaifenesin 20 MG/ML Oral Solution"
                },
                "resourceType": "MedicationRequest",
                "status": "active",
                "subject": {
                    "reference": "Patient/smart-767980"
                },
                "text": {
                    "div": "<div xmlns=\"http://www.w3.org/1999/xhtml\">Codeine 2 MG/ML / Guaifenesin 20 MG/ML Oral Solution (rxnorm: 309428)</div>",
                    "status": "generated"
                },
                "meta": {
                    "tag": [
                        {
                            "system": "https://smarthealthit.org/tags",
                            "code": "smart-7-2017"
                        }
                    ]
                }
            },
            "fullUrl": "/MedicationRequest/smart-MedicationRequest-56"
        },
        {
            "request": {
                "method": "PUT",
                "url": "MedicationRequest/smart-MedicationRequest-57"
            },
            "resource": {
                "dispenseRequest": {
                    "expectedSupplyDuration": {
                        "code": "d",
                        "system": "http://unitsofmeasure.org",
                        "unit": "days",
                        "value": 30
                    },
                    "numberOfRepeatsAllowed": 1,
                    "quantity": {
                        "code": "{tablet}",
                        "system": "http://unitsofmeasure.org",
                        "unit": "{tablet}",
                        "value": 30
                    }
                },
                "dosageInstruction": [
                    {
                        "doseQuantity": {
                            "code": "{tablet}",
                            "system": "http://unitsofmeasure.org",
                            "unit": "{tablet}",
                            "value": 1
                        },
                        "text": "1 daily",
                        "timing": {
                            "repeat": {
                                "boundsPeriod": {
                                    "start": "2005-12-17"
                                },
                                "frequency": 1,
                                "period": 1,
                                "periodUnit": "d"
                            }
                        }
                    }
                ],
                "id": "smart-MedicationRequest-57",
                "intent": "order",
                "medicationCodeableConcept": {
                    "coding": [
                        {
                            "code": "310489",
                            "display": "24 HR Glipizide 2.5 MG Extended Release Tablet",
                            "system": "http://www.nlm.nih.gov/research/umls/rxnorm"
                        }
                    ],
                    "text": "24 HR Glipizide 2.5 MG Extended Release Tablet"
                },
                "resourceType": "MedicationRequest",
                "status": "active",
                "subject": {
                    "reference": "Patient/smart-767980"
                },
                "text": {
                    "div": "<div xmlns=\"http://www.w3.org/1999/xhtml\">24 HR Glipizide 2.5 MG Extended Release Tablet (rxnorm: 310489)</div>",
                    "status": "generated"
                },
                "meta": {
                    "tag": [
                        {
                            "system": "https://smarthealthit.org/tags",
                            "code": "smart-7-2017"
                        }
                    ]
                }
            },
            "fullUrl": "/MedicationRequest/smart-MedicationRequest-57"
        },
        {
            "request": {
                "method": "PUT",
                "url": "MedicationDispense/smart-MedicationDispense-542"
            },
            "resource": {
                "authorizingPrescription": [
                    {
                        "reference": "MedicationRequest/smart-MedicationRequest-57"
                    }
                ],
                "daysSupply": {
                    "code": "d",
                    "system": "http://unitsofmeasure.org",
                    "unit": "days",
                    "value": 30
                },
                "id": "smart-MedicationDispense-542",
                "medicationCodeableConcept": {
                    "coding": [
                        {
                            "code": "310489",
                            "display": "24 HR Glipizide 2.5 MG Extended Release Tablet",
                            "system": "http://www.nlm.nih.gov/research/umls/rxnorm"
                        }
                    ],
                    "text": "24 HR Glipizide 2.5 MG Extended Release Tablet"
                },
                "quantity": {
                    "code": "{tablets}",
                    "system": "http://unitsofmeasure.org",
                    "unit": "tablets",
                    "value": 30
                },
                "resourceType": "MedicationDispense",
                "status": "completed",
                "subject": {
                    "reference": "Patient/smart-767980"
                },
                "text": {
                    "div": "<div xmlns=\"http://www.w3.org/1999/xhtml\">Dispensed 30 tablets = 30 day supply of 24 HR Glipizide 2.5 MG Extended Release Tablet</div>",
                    "status": "generated"
                },
                "whenHandedOver": "2005-12-17",
                "meta": {
                    "tag": [
                        {
                            "system": "https://smarthealthit.org/tags",
                            "code": "smart-7-2017"
                        }
                    ]
                }
            },
            "fullUrl": "/MedicationDispense/smart-MedicationDispense-542"
        },
        {
            "request": {
                "method": "PUT",
                "url": "MedicationRequest/smart-MedicationRequest-58"
            },
            "resource": {
                "dispenseRequest": {
                    "expectedSupplyDuration": {
                        "code": "d",
                        "system": "http://unitsofmeasure.org",
                        "unit": "days",
                        "value": 30
                    },
                    "numberOfRepeatsAllowed": 1,
                    "quantity": {
                        "code": "{tablet}",
                        "system": "http://unitsofmeasure.org",
                        "unit": "{tablet}",
                        "value": 30
                    }
                },
                "dosageInstruction": [
                    {
                        "doseQuantity": {
                            "code": "{tablet}",
                            "system": "http://unitsofmeasure.org",
                            "unit": "{tablet}",
                            "value": 1
                        },
                        "text": "1 qhs",
                        "timing": {
                            "repeat": {
                                "boundsPeriod": {
                                    "start": "2005-12-17"
                                },
                                "frequency": 1,
                                "period": 1,
                                "periodUnit": "d"
                            }
                        }
                    }
                ],
                "id": "smart-MedicationRequest-58",
                "intent": "order",
                "medicationCodeableConcept": {
                    "coding": [
                        {
                            "code": "543354",
                            "display": "ezetimibe 10 MG / Simvastatin 40 MG Oral Tablet [Vytorin]",
                            "system": "http://www.nlm.nih.gov/research/umls/rxnorm"
                        }
                    ],
                    "text": "ezetimibe 10 MG / Simvastatin 40 MG Oral Tablet [Vytorin]"
                },
                "resourceType": "MedicationRequest",
                "status": "active",
                "subject": {
                    "reference": "Patient/smart-767980"
                },
                "text": {
                    "div": "<div xmlns=\"http://www.w3.org/1999/xhtml\">ezetimibe 10 MG / Simvastatin 40 MG Oral Tablet [Vytorin] (rxnorm: 543354)</div>",
                    "status": "generated"
                },
                "meta": {
                    "tag": [
                        {
                            "system": "https://smarthealthit.org/tags",
                            "code": "smart-7-2017"
                        }
                    ]
                }
            },
            "fullUrl": "/MedicationRequest/smart-MedicationRequest-58"
        },
        {
            "request": {
                "method": "PUT",
                "url": "MedicationDispense/smart-MedicationDispense-554"
            },
            "resource": {
                "authorizingPrescription": [
                    {
                        "reference": "MedicationRequest/smart-MedicationRequest-58"
                    }
                ],
                "daysSupply": {
                    "code": "d",
                    "system": "http://unitsofmeasure.org",
                    "unit": "days",
                    "value": 30
                },
                "id": "smart-MedicationDispense-554",
                "medicationCodeableConcept": {
                    "coding": [
                        {
                            "code": "543354",
                            "display": "ezetimibe 10 MG / Simvastatin 40 MG Oral Tablet [Vytorin]",
                            "system": "http://www.nlm.nih.gov/research/umls/rxnorm"
                        }
                    ],
                    "text": "ezetimibe 10 MG / Simvastatin 40 MG Oral Tablet [Vytorin]"
                },
                "quantity": {
                    "code": "{tablets}",
                    "system": "http://unitsofmeasure.org",
                    "unit": "tablets",
                    "value": 30
                },
                "resourceType": "MedicationDispense",
                "status": "completed",
                "subject": {
                    "reference": "Patient/smart-767980"
                },
                "text": {
                    "div": "<div xmlns=\"http://www.w3.org/1999/xhtml\">Dispensed 30 tablets = 30 day supply of ezetimibe 10 MG / Simvastatin 40 MG Oral Tablet [Vytorin]</div>",
                    "status": "generated"
                },
                "whenHandedOver": "2005-12-17",
                "meta": {
                    "tag": [
                        {
                            "system": "https://smarthealthit.org/tags",
                            "code": "smart-7-2017"
                        }
                    ]
                }
            },
            "fullUrl": "/MedicationDispense/smart-MedicationDispense-554"
        },
        {
            "request": {
                "method": "PUT",
                "url": "MedicationRequest/smart-MedicationRequest-59"
            },
            "resource": {
                "dispenseRequest": {
                    "expectedSupplyDuration": {
                        "code": "d",
                        "system": "http://unitsofmeasure.org",
                        "unit": "days",
                        "value": 30
                    },
                    "numberOfRepeatsAllowed": 1,
                    "quantity": {
                        "code": "{tablet}",
                        "system": "http://unitsofmeasure.org",
                        "unit": "{tablet}",
                        "value": 30
                    }
                },
                "dosageInstruction": [
                    {
                        "doseQuantity": {
                            "code": "{tablet}",
                            "system": "http://unitsofmeasure.org",
                            "unit": "{tablet}",
                            "value": 1
                        },
                        "text": "1 daily",
                        "timing": {
                            "repeat": {
                                "boundsPeriod": {
                                    "start": "2006-01-06"
                                },
                                "frequency": 1,
                                "period": 1,
                                "periodUnit": "d"
                            }
                        }
                    }
                ],
                "id": "smart-MedicationRequest-59",
                "intent": "order",
                "medicationCodeableConcept": {
                    "coding": [
                        {
                            "code": "352304",
                            "display": "ezetimibe 10 MG Oral Tablet [Zetia]",
                            "system": "http://www.nlm.nih.gov/research/umls/rxnorm"
                        }
                    ],
                    "text": "ezetimibe 10 MG Oral Tablet [Zetia]"
                },
                "resourceType": "MedicationRequest",
                "status": "active",
                "subject": {
                    "reference": "Patient/smart-767980"
                },
                "text": {
                    "div": "<div xmlns=\"http://www.w3.org/1999/xhtml\">ezetimibe 10 MG Oral Tablet [Zetia] (rxnorm: 352304)</div>",
                    "status": "generated"
                },
                "meta": {
                    "tag": [
                        {
                            "system": "https://smarthealthit.org/tags",
                            "code": "smart-7-2017"
                        }
                    ]
                }
            },
            "fullUrl": "/MedicationRequest/smart-MedicationRequest-59"
        },
        {
            "request": {
                "method": "PUT",
                "url": "MedicationDispense/smart-MedicationDispense-553"
            },
            "resource": {
                "authorizingPrescription": [
                    {
                        "reference": "MedicationRequest/smart-MedicationRequest-59"
                    }
                ],
                "daysSupply": {
                    "code": "d",
                    "system": "http://unitsofmeasure.org",
                    "unit": "days",
                    "value": 30
                },
                "id": "smart-MedicationDispense-553",
                "medicationCodeableConcept": {
                    "coding": [
                        {
                            "code": "352304",
                            "display": "ezetimibe 10 MG Oral Tablet [Zetia]",
                            "system": "http://www.nlm.nih.gov/research/umls/rxnorm"
                        }
                    ],
                    "text": "ezetimibe 10 MG Oral Tablet [Zetia]"
                },
                "quantity": {
                    "code": "{tablets}",
                    "system": "http://unitsofmeasure.org",
                    "unit": "tablets",
                    "value": 30
                },
                "resourceType": "MedicationDispense",
                "status": "completed",
                "subject": {
                    "reference": "Patient/smart-767980"
                },
                "text": {
                    "div": "<div xmlns=\"http://www.w3.org/1999/xhtml\">Dispensed 30 tablets = 30 day supply of ezetimibe 10 MG Oral Tablet [Zetia]</div>",
                    "status": "generated"
                },
                "whenHandedOver": "2006-01-09",
                "meta": {
                    "tag": [
                        {
                            "system": "https://smarthealthit.org/tags",
                            "code": "smart-7-2017"
                        }
                    ]
                }
            },
            "fullUrl": "/MedicationDispense/smart-MedicationDispense-553"
        },
        {
            "request": {
                "method": "PUT",
                "url": "MedicationDispense/smart-MedicationDispense-552"
            },
            "resource": {
                "authorizingPrescription": [
                    {
                        "reference": "MedicationRequest/smart-MedicationRequest-59"
                    }
                ],
                "daysSupply": {
                    "code": "d",
                    "system": "http://unitsofmeasure.org",
                    "unit": "days",
                    "value": 30
                },
                "id": "smart-MedicationDispense-552",
                "medicationCodeableConcept": {
                    "coding": [
                        {
                            "code": "352304",
                            "display": "ezetimibe 10 MG Oral Tablet [Zetia]",
                            "system": "http://www.nlm.nih.gov/research/umls/rxnorm"
                        }
                    ],
                    "text": "ezetimibe 10 MG Oral Tablet [Zetia]"
                },
                "quantity": {
                    "code": "{tablets}",
                    "system": "http://unitsofmeasure.org",
                    "unit": "tablets",
                    "value": 30
                },
                "resourceType": "MedicationDispense",
                "status": "completed",
                "subject": {
                    "reference": "Patient/smart-767980"
                },
                "text": {
                    "div": "<div xmlns=\"http://www.w3.org/1999/xhtml\">Dispensed 30 tablets = 30 day supply of ezetimibe 10 MG Oral Tablet [Zetia]</div>",
                    "status": "generated"
                },
                "whenHandedOver": "2006-01-06",
                "meta": {
                    "tag": [
                        {
                            "system": "https://smarthealthit.org/tags",
                            "code": "smart-7-2017"
                        }
                    ]
                }
            },
            "fullUrl": "/MedicationDispense/smart-MedicationDispense-552"
        },
        {
            "request": {
                "method": "PUT",
                "url": "MedicationRequest/smart-MedicationRequest-60"
            },
            "resource": {
                "dispenseRequest": {
                    "expectedSupplyDuration": {
                        "code": "d",
                        "system": "http://unitsofmeasure.org",
                        "unit": "days",
                        "value": 30
                    },
                    "numberOfRepeatsAllowed": 1,
                    "quantity": {
                        "code": "{tablet}",
                        "system": "http://unitsofmeasure.org",
                        "unit": "{tablet}",
                        "value": 30
                    }
                },
                "dosageInstruction": [
                    {
                        "doseQuantity": {
                            "code": "{tablet}",
                            "system": "http://unitsofmeasure.org",
                            "unit": "{tablet}",
                            "value": 1
                        },
                        "text": "1 qhs",
                        "timing": {
                            "repeat": {
                                "boundsPeriod": {
                                    "start": "2006-01-06"
                                },
                                "frequency": 1,
                                "period": 1,
                                "periodUnit": "d"
                            }
                        }
                    }
                ],
                "id": "smart-MedicationRequest-60",
                "intent": "order",
                "medicationCodeableConcept": {
                    "coding": [
                        {
                            "code": "859749",
                            "display": "rosuvastatin 10 MG Oral Tablet [Crestor]",
                            "system": "http://www.nlm.nih.gov/research/umls/rxnorm"
                        }
                    ],
                    "text": "rosuvastatin 10 MG Oral Tablet [Crestor]"
                },
                "resourceType": "MedicationRequest",
                "status": "active",
                "subject": {
                    "reference": "Patient/smart-767980"
                },
                "text": {
                    "div": "<div xmlns=\"http://www.w3.org/1999/xhtml\">rosuvastatin 10 MG Oral Tablet [Crestor] (rxnorm: 859749)</div>",
                    "status": "generated"
                },
                "meta": {
                    "tag": [
                        {
                            "system": "https://smarthealthit.org/tags",
                            "code": "smart-7-2017"
                        }
                    ]
                }
            },
            "fullUrl": "/MedicationRequest/smart-MedicationRequest-60"
        },
        {
            "request": {
                "method": "PUT",
                "url": "MedicationDispense/smart-MedicationDispense-548"
            },
            "resource": {
                "authorizingPrescription": [
                    {
                        "reference": "MedicationRequest/smart-MedicationRequest-60"
                    }
                ],
                "daysSupply": {
                    "code": "d",
                    "system": "http://unitsofmeasure.org",
                    "unit": "days",
                    "value": 30
                },
                "id": "smart-MedicationDispense-548",
                "medicationCodeableConcept": {
                    "coding": [
                        {
                            "code": "859749",
                            "display": "rosuvastatin 10 MG Oral Tablet [Crestor]",
                            "system": "http://www.nlm.nih.gov/research/umls/rxnorm"
                        }
                    ],
                    "text": "rosuvastatin 10 MG Oral Tablet [Crestor]"
                },
                "quantity": {
                    "code": "{tablets}",
                    "system": "http://unitsofmeasure.org",
                    "unit": "tablets",
                    "value": 30
                },
                "resourceType": "MedicationDispense",
                "status": "completed",
                "subject": {
                    "reference": "Patient/smart-767980"
                },
                "text": {
                    "div": "<div xmlns=\"http://www.w3.org/1999/xhtml\">Dispensed 30 tablets = 30 day supply of rosuvastatin 10 MG Oral Tablet [Crestor]</div>",
                    "status": "generated"
                },
                "whenHandedOver": "2006-01-06",
                "meta": {
                    "tag": [
                        {
                            "system": "https://smarthealthit.org/tags",
                            "code": "smart-7-2017"
                        }
                    ]
                }
            },
            "fullUrl": "/MedicationDispense/smart-MedicationDispense-548"
        },
        {
            "request": {
                "method": "PUT",
                "url": "MedicationRequest/smart-MedicationRequest-61"
            },
            "resource": {
                "dispenseRequest": {
                    "expectedSupplyDuration": {
                        "code": "d",
                        "system": "http://unitsofmeasure.org",
                        "unit": "days",
                        "value": 4
                    },
                    "numberOfRepeatsAllowed": 1,
                    "quantity": {
                        "code": "{tablet}",
                        "system": "http://unitsofmeasure.org",
                        "unit": "{tablet}",
                        "value": 20
                    }
                },
                "dosageInstruction": [
                    {
                        "asNeededBoolean": true,
                        "doseQuantity": {
                            "code": "{tablet}",
                            "system": "http://unitsofmeasure.org",
                            "unit": "{tablet}",
                            "value": 1
                        },
                        "text": "1 q6h prn pain",
                        "timing": {
                            "repeat": {
                                "boundsPeriod": {
                                    "start": "2009-08-14"
                                },
                                "frequency": 4,
                                "period": 1,
                                "periodUnit": "d"
                            }
                        }
                    }
                ],
                "id": "smart-MedicationRequest-61",
                "intent": "order",
                "medicationCodeableConcept": {
                    "coding": [
                        {
                            "code": "828576",
                            "display": "Acetaminophen 650 MG / propoxyphene napsylate 100 MG Oral Tablet",
                            "system": "http://www.nlm.nih.gov/research/umls/rxnorm"
                        }
                    ],
                    "text": "Acetaminophen 650 MG / propoxyphene napsylate 100 MG Oral Tablet"
                },
                "resourceType": "MedicationRequest",
                "status": "active",
                "subject": {
                    "reference": "Patient/smart-767980"
                },
                "text": {
                    "div": "<div xmlns=\"http://www.w3.org/1999/xhtml\">Acetaminophen 650 MG / propoxyphene napsylate 100 MG Oral Tablet (rxnorm: 828576)</div>",
                    "status": "generated"
                },
                "meta": {
                    "tag": [
                        {
                            "system": "https://smarthealthit.org/tags",
                            "code": "smart-7-2017"
                        }
                    ]
                }
            },
            "fullUrl": "/MedicationRequest/smart-MedicationRequest-61"
        },
        {
            "request": {
                "method": "PUT",
                "url": "MedicationDispense/smart-MedicationDispense-541"
            },
            "resource": {
                "authorizingPrescription": [
                    {
                        "reference": "MedicationRequest/smart-MedicationRequest-61"
                    }
                ],
                "daysSupply": {
                    "code": "d",
                    "system": "http://unitsofmeasure.org",
                    "unit": "days",
                    "value": 4
                },
                "id": "smart-MedicationDispense-541",
                "medicationCodeableConcept": {
                    "coding": [
                        {
                            "code": "828576",
                            "display": "Acetaminophen 650 MG / propoxyphene napsylate 100 MG Oral Tablet",
                            "system": "http://www.nlm.nih.gov/research/umls/rxnorm"
                        }
                    ],
                    "text": "Acetaminophen 650 MG / propoxyphene napsylate 100 MG Oral Tablet"
                },
                "quantity": {
                    "code": "{tablets}",
                    "system": "http://unitsofmeasure.org",
                    "unit": "tablets",
                    "value": 20
                },
                "resourceType": "MedicationDispense",
                "status": "completed",
                "subject": {
                    "reference": "Patient/smart-767980"
                },
                "text": {
                    "div": "<div xmlns=\"http://www.w3.org/1999/xhtml\">Dispensed 20 tablets = 4 day supply of Acetaminophen 650 MG / propoxyphene napsylate 100 MG Oral Tablet</div>",
                    "status": "generated"
                },
                "whenHandedOver": "2009-08-14",
                "meta": {
                    "tag": [
                        {
                            "system": "https://smarthealthit.org/tags",
                            "code": "smart-7-2017"
                        }
                    ]
                }
            },
            "fullUrl": "/MedicationDispense/smart-MedicationDispense-541"
        },
        {
            "request": {
                "method": "PUT",
                "url": "Condition/smart-Condition-247"
            },
            "resource": {
                "clinicalStatus": "active",
                "code": {
                    "coding": [
                        {
                            "code": "29857009",
                            "display": "Chest pain",
                            "system": "http://snomed.info/sct"
                        }
                    ],
                    "text": "Chest pain"
                },
                "id": "smart-Condition-247",
                "onsetDateTime": "2004-08-12",
                "resourceType": "Condition",
                "subject": {
                    "reference": "Patient/smart-767980"
                },
                "text": {
                    "div": "<div xmlns=\"http://www.w3.org/1999/xhtml\">Chest pain</div>",
                    "status": "generated"
                },
                "verificationStatus": "confirmed",
                "meta": {
                    "tag": [
                        {
                            "system": "https://smarthealthit.org/tags",
                            "code": "smart-7-2017"
                        }
                    ]
                }
            },
            "fullUrl": "/Condition/smart-Condition-247"
        },
        {
            "request": {
                "method": "PUT",
                "url": "Condition/smart-Condition-248"
            },
            "resource": {
                "clinicalStatus": "active",
                "code": {
                    "coding": [
                        {
                            "code": "38341003",
                            "display": "Essential hypertension",
                            "system": "http://snomed.info/sct"
                        }
                    ],
                    "text": "Essential hypertension"
                },
                "id": "smart-Condition-248",
                "onsetDateTime": "2004-08-12",
                "resourceType": "Condition",
                "subject": {
                    "reference": "Patient/smart-767980"
                },
                "text": {
                    "div": "<div xmlns=\"http://www.w3.org/1999/xhtml\">Essential hypertension</div>",
                    "status": "generated"
                },
                "verificationStatus": "confirmed",
                "meta": {
                    "tag": [
                        {
                            "system": "https://smarthealthit.org/tags",
                            "code": "smart-7-2017"
                        }
                    ]
                }
            },
            "fullUrl": "/Condition/smart-Condition-248"
        },
        {
            "request": {
                "method": "PUT",
                "url": "Condition/smart-Condition-249"
            },
            "resource": {
                "clinicalStatus": "active",
                "code": {
                    "coding": [
                        {
                            "code": "266998003",
                            "display": "H/O: peptic ulcer",
                            "system": "http://snomed.info/sct"
                        }
                    ],
                    "text": "H/O: peptic ulcer"
                },
                "id": "smart-Condition-249",
                "onsetDateTime": "2004-08-12",
                "resourceType": "Condition",
                "subject": {
                    "reference": "Patient/smart-767980"
                },
                "text": {
                    "div": "<div xmlns=\"http://www.w3.org/1999/xhtml\">H/O: peptic ulcer</div>",
                    "status": "generated"
                },
                "verificationStatus": "confirmed",
                "meta": {
                    "tag": [
                        {
                            "system": "https://smarthealthit.org/tags",
                            "code": "smart-7-2017"
                        }
                    ]
                }
            },
            "fullUrl": "/Condition/smart-Condition-249"
        },
        {
            "request": {
                "method": "PUT",
                "url": "Condition/smart-Condition-250"
            },
            "resource": {
                "clinicalStatus": "active",
                "code": {
                    "coding": [
                        {
                            "code": "102588006",
                            "display": "Painful respiration",
                            "system": "http://snomed.info/sct"
                        }
                    ],
                    "text": "Painful respiration"
                },
                "id": "smart-Condition-250",
                "onsetDateTime": "2004-08-12",
                "resourceType": "Condition",
                "subject": {
                    "reference": "Patient/smart-767980"
                },
                "text": {
                    "div": "<div xmlns=\"http://www.w3.org/1999/xhtml\">Painful respiration</div>",
                    "status": "generated"
                },
                "verificationStatus": "confirmed",
                "meta": {
                    "tag": [
                        {
                            "system": "https://smarthealthit.org/tags",
                            "code": "smart-7-2017"
                        }
                    ]
                }
            },
            "fullUrl": "/Condition/smart-Condition-250"
        },
        {
            "request": {
                "method": "PUT",
                "url": "Condition/smart-Condition-251"
            },
            "resource": {
                "clinicalStatus": "active",
                "code": {
                    "coding": [
                        {
                            "code": "267432004",
                            "display": "Pure hypercholesterolemia",
                            "system": "http://snomed.info/sct"
                        }
                    ],
                    "text": "Pure hypercholesterolemia"
                },
                "id": "smart-Condition-251",
                "onsetDateTime": "2004-08-12",
                "resourceType": "Condition",
                "subject": {
                    "reference": "Patient/smart-767980"
                },
                "text": {
                    "div": "<div xmlns=\"http://www.w3.org/1999/xhtml\">Pure hypercholesterolemia</div>",
                    "status": "generated"
                },
                "verificationStatus": "confirmed",
                "meta": {
                    "tag": [
                        {
                            "system": "https://smarthealthit.org/tags",
                            "code": "smart-7-2017"
                        }
                    ]
                }
            },
            "fullUrl": "/Condition/smart-Condition-251"
        },
        {
            "request": {
                "method": "PUT",
                "url": "Condition/smart-Condition-252"
            },
            "resource": {
                "clinicalStatus": "active",
                "code": {
                    "coding": [
                        {
                            "code": "89765005",
                            "display": "Tobacco dependence syndrome",
                            "system": "http://snomed.info/sct"
                        }
                    ],
                    "text": "Tobacco dependence syndrome"
                },
                "id": "smart-Condition-252",
                "onsetDateTime": "2004-08-12",
                "resourceType": "Condition",
                "subject": {
                    "reference": "Patient/smart-767980"
                },
                "text": {
                    "div": "<div xmlns=\"http://www.w3.org/1999/xhtml\">Tobacco dependence syndrome</div>",
                    "status": "generated"
                },
                "verificationStatus": "confirmed",
                "meta": {
                    "tag": [
                        {
                            "system": "https://smarthealthit.org/tags",
                            "code": "smart-7-2017"
                        }
                    ]
                }
            },
            "fullUrl": "/Condition/smart-Condition-252"
        },
        {
            "request": {
                "method": "PUT",
                "url": "Condition/smart-Condition-253"
            },
            "resource": {
                "clinicalStatus": "active",
                "code": {
                    "coding": [
                        {
                            "code": "32398004",
                            "display": "Bronchitis",
                            "system": "http://snomed.info/sct"
                        }
                    ],
                    "text": "Bronchitis"
                },
                "id": "smart-Condition-253",
                "onsetDateTime": "2004-10-18",
                "resourceType": "Condition",
                "subject": {
                    "reference": "Patient/smart-767980"
                },
                "text": {
                    "div": "<div xmlns=\"http://www.w3.org/1999/xhtml\">Bronchitis</div>",
                    "status": "generated"
                },
                "verificationStatus": "confirmed",
                "meta": {
                    "tag": [
                        {
                            "system": "https://smarthealthit.org/tags",
                            "code": "smart-7-2017"
                        }
                    ]
                }
            },
            "fullUrl": "/Condition/smart-Condition-253"
        },
        {
            "request": {
                "method": "PUT",
                "url": "Condition/smart-Condition-254"
            },
            "resource": {
                "clinicalStatus": "active",
                "code": {
                    "coding": [
                        {
                            "code": "80394007",
                            "display": "Blood chemistry abnormal",
                            "system": "http://snomed.info/sct"
                        }
                    ],
                    "text": "Blood chemistry abnormal"
                },
                "id": "smart-Condition-254",
                "onsetDateTime": "2004-10-22",
                "resourceType": "Condition",
                "subject": {
                    "reference": "Patient/smart-767980"
                },
                "text": {
                    "div": "<div xmlns=\"http://www.w3.org/1999/xhtml\">Blood chemistry abnormal</div>",
                    "status": "generated"
                },
                "verificationStatus": "confirmed",
                "meta": {
                    "tag": [
                        {
                            "system": "https://smarthealthit.org/tags",
                            "code": "smart-7-2017"
                        }
                    ]
                }
            },
            "fullUrl": "/Condition/smart-Condition-254"
        },
        {
            "request": {
                "method": "PUT",
                "url": "Condition/smart-Condition-255"
            },
            "resource": {
                "clinicalStatus": "active",
                "code": {
                    "coding": [
                        {
                            "code": "54150009",
                            "display": "Acute upper respiratory infection",
                            "system": "http://snomed.info/sct"
                        }
                    ],
                    "text": "Acute upper respiratory infection"
                },
                "id": "smart-Condition-255",
                "onsetDateTime": "2004-12-10",
                "resourceType": "Condition",
                "subject": {
                    "reference": "Patient/smart-767980"
                },
                "text": {
                    "div": "<div xmlns=\"http://www.w3.org/1999/xhtml\">Acute upper respiratory infection</div>",
                    "status": "generated"
                },
                "verificationStatus": "confirmed",
                "meta": {
                    "tag": [
                        {
                            "system": "https://smarthealthit.org/tags",
                            "code": "smart-7-2017"
                        }
                    ]
                }
            },
            "fullUrl": "/Condition/smart-Condition-255"
        },
        {
            "request": {
                "method": "PUT",
                "url": "Condition/smart-Condition-256"
            },
            "resource": {
                "clinicalStatus": "active",
                "code": {
                    "coding": [
                        {
                            "code": "44054006",
                            "display": "Diabetes mellitus type 2",
                            "system": "http://snomed.info/sct"
                        }
                    ],
                    "text": "Diabetes mellitus type 2"
                },
                "id": "smart-Condition-256",
                "onsetDateTime": "2004-12-10",
                "resourceType": "Condition",
                "subject": {
                    "reference": "Patient/smart-767980"
                },
                "text": {
                    "div": "<div xmlns=\"http://www.w3.org/1999/xhtml\">Diabetes mellitus type 2</div>",
                    "status": "generated"
                },
                "verificationStatus": "confirmed",
                "meta": {
                    "tag": [
                        {
                            "system": "https://smarthealthit.org/tags",
                            "code": "smart-7-2017"
                        }
                    ]
                }
            },
            "fullUrl": "/Condition/smart-Condition-256"
        },
        {
            "request": {
                "method": "PUT",
                "url": "Condition/smart-Condition-257"
            },
            "resource": {
                "clinicalStatus": "active",
                "code": {
                    "coding": [
                        {
                            "code": "185903001",
                            "display": "Needs influenza immunization",
                            "system": "http://snomed.info/sct"
                        }
                    ],
                    "text": "Needs influenza immunization"
                },
                "id": "smart-Condition-257",
                "onsetDateTime": "2005-09-08",
                "resourceType": "Condition",
                "subject": {
                    "reference": "Patient/smart-767980"
                },
                "text": {
                    "div": "<div xmlns=\"http://www.w3.org/1999/xhtml\">Needs influenza immunization</div>",
                    "status": "generated"
                },
                "verificationStatus": "confirmed",
                "meta": {
                    "tag": [
                        {
                            "system": "https://smarthealthit.org/tags",
                            "code": "smart-7-2017"
                        }
                    ]
                }
            },
            "fullUrl": "/Condition/smart-Condition-257"
        },
        {
            "request": {
                "method": "PUT",
                "url": "Condition/smart-Condition-258"
            },
            "resource": {
                "clinicalStatus": "active",
                "code": {
                    "coding": [
                        {
                            "code": "249288007",
                            "display": "Incomplete emptying of bladder",
                            "system": "http://snomed.info/sct"
                        }
                    ],
                    "text": "Incomplete emptying of bladder"
                },
                "id": "smart-Condition-258",
                "onsetDateTime": "2005-12-16",
                "resourceType": "Condition",
                "subject": {
                    "reference": "Patient/smart-767980"
                },
                "text": {
                    "div": "<div xmlns=\"http://www.w3.org/1999/xhtml\">Incomplete emptying of bladder</div>",
                    "status": "generated"
                },
                "verificationStatus": "confirmed",
                "meta": {
                    "tag": [
                        {
                            "system": "https://smarthealthit.org/tags",
                            "code": "smart-7-2017"
                        }
                    ]
                }
            },
            "fullUrl": "/Condition/smart-Condition-258"
        },
        {
            "request": {
                "method": "PUT",
                "url": "Observation/smart-smokingstatus-14"
            },
            "resource": {
                "category": [
                    {
                        "coding": [
                            {
                                "code": "social-history",
                                "display": "Social History",
                                "system": "http://hl7.org/fhir/observation-category"
                            }
                        ],
                        "text": "Social History"
                    }
                ],
                "code": {
                    "coding": [
                        {
                            "code": "72166-2",
                            "display": "Tobacco smoking status",
                            "system": "http://loinc.org"
                        }
                    ],
                    "text": "Tobacco smoking status"
                },
                "effectiveDateTime": "2016-03-15",
                "id": "smart-smokingstatus-14",
                "identifier": [
                    {
                        "system": "http://www.bmc.nl/zorgportal/identifiers/observations",
                        "use": "official",
                        "value": "smart-14"
                    }
                ],
                "performer": [
                    {
                        "reference": "Practitioner/smart-Practitioner-71032702"
                    }
                ],
                "resourceType": "Observation",
                "status": "final",
                "subject": {
                    "reference": "Patient/smart-767980"
                },
                "text": {
                    "div": "<div xmlns=\"http://www.w3.org/1999/xhtml\">Tobacco smoking status: Current some day smoker</div>",
                    "status": "generated"
                },
                "valueCodeableConcept": {
                    "coding": [
                        {
                            "code": "428041000124106",
                            "display": "Current some day smoker",
                            "system": "http://snomed.info/sct"
                        }
                    ],
                    "text": "Current some day smoker"
                },
                "meta": {
                    "tag": [
                        {
                            "system": "https://smarthealthit.org/tags",
                            "code": "smart-7-2017"
                        }
                    ]
                }
            },
            "fullUrl": "/Observation/smart-smokingstatus-14"
        },
        {
            "request": {
                "method": "PUT",
                "url": "AllergyIntolerance/smart-AllergyIntolerance-12"
            },
            "resource": {
                "assertedDate": "2000",
                "clinicalStatus": "active",
                "code": {
                    "coding": [
                        {
                            "code": "716186003",
                            "display": "No known allergies",
                            "system": "http://snomed.info/sct"
                        }
                    ],
                    "text": "No known allergies"
                },
                "id": "smart-AllergyIntolerance-12",
                "patient": {
                    "reference": "Patient/smart-767980"
                },
                "resourceType": "AllergyIntolerance",
                "text": {
                    "div": "<div xmlns=\"http://www.w3.org/1999/xhtml\">No known allergies</div>",
                    "status": "generated"
                },
                "verificationStatus": "confirmed",
                "meta": {
                    "tag": [
                        {
                            "system": "https://smarthealthit.org/tags",
                            "code": "smart-7-2017"
                        }
                    ]
                }
            },
            "fullUrl": "/AllergyIntolerance/smart-AllergyIntolerance-12"
        }
    ],
    "resourceType": "Bundle",
    "type": "transaction"
}