{
    "resourceType": "Bundle",
    "id": "bundle-request-insert-questionnaire-SMART-PROMs-QUE1",
    "type": "transaction",
    "entry": [
        {
            "request": {
                "method": "PUT",
                "url": "ValueSet/SMART-PROMs-VS1"
            },
            "resource": {
                "resourceType": "ValueSet",
                "url": "/ValueSet/SMART-PROMs-VS1",
                "id": "SMART-PROMs-VS1",
                "name": "YesMissing",
                "description": "Captures a yes or missing response",
                "status": "draft",
                "compose": {
                    "include": [
                        {
                            "system": "http://content.digital.nhs.uk/media/1361/HES-Hospital-Episode-Statistics-PROMS-Data-Dictionary/pdf/Proms_Data_Dictionary.pdf",
                            "concept": [
                                {
                                    "code": "1",
                                    "display": "Yes"
                                },
                                {
                                    "code": "9",
                                    "display": "Missing"
                                }
                            ]
                        }
                    ]
                },
                "meta": {
                    "tag": [
                        {
                            "system": "https://smarthealthit.org/tags",
                            "code": "pro-7-2017"
                        }
                    ]
                }
            },
            "fullUrl": "/ValueSet/SMART-PROMs-VS1"
        },
        {
            "request": {
                "method": "PUT",
                "url": "ValueSet/SMART-PROMs-VS2"
            },
            "resource": {
                "resourceType": "ValueSet",
                "url": "/ValueSet/SMART-PROMs-VS2",
                "id": "SMART-PROMs-VS2",
                "name": "YesNoMissing",
                "status": "draft",
                "compose": {
                    "include": [
                        {
                            "system": "http://content.digital.nhs.uk/media/1361/HES-Hospital-Episode-Statistics-PROMS-Data-Dictionary/pdf/Proms_Data_Dictionary.pdf",
                            "concept": [
                                {
                                    "code": "1",
                                    "display": "Yes"
                                },
                                {
                                    "code": "2",
                                    "display": "No"
                                },
                                {
                                    "code": "3",
                                    "display": "Missing"
                                }
                            ]
                        }
                    ]
                },
                "meta": {
                    "tag": [
                        {
                            "system": "https://smarthealthit.org/tags",
                            "code": "pro-7-2017"
                        }
                    ]
                }
            },
            "fullUrl": "/ValueSet/SMART-PROMs-VS2"
        },
        {
            "request": {
                "method": "PUT",
                "url": "ValueSet/SMART-PROMs-VS3"
            },
            "resource": {
                "resourceType": "ValueSet",
                "url": "/ValueSet/SMART-PROMs-VS3",
                "id": "SMART-PROMs-VS3",
                "name": "AssistingPerson",
                "status": "draft",
                "compose": {
                    "include": [
                        {
                            "system": "http://content.digital.nhs.uk/media/1361/HES-Hospital-Episode-Statistics-PROMS-Data-Dictionary/pdf/Proms_Data_Dictionary.pdf",
                            "concept": [
                                {
                                    "code": "0",
                                    "display": "N/A"
                                },
                                {
                                    "code": "1",
                                    "display": "Family Member"
                                },
                                {
                                    "code": "2",
                                    "display": "Other Relative"
                                },
                                {
                                    "code": "3",
                                    "display": "Carer"
                                },
                                {
                                    "code": "4",
                                    "display": "Friend/Neighbor"
                                },
                                {
                                    "code": "5",
                                    "display": "Healthcare Professional"
                                },
                                {
                                    "code": "6",
                                    "display": "Other"
                                },
                                {
                                    "code": "9",
                                    "display": "Missing"
                                }
                            ]
                        }
                    ]
                },
                "meta": {
                    "tag": [
                        {
                            "system": "https://smarthealthit.org/tags",
                            "code": "pro-7-2017"
                        }
                    ]
                }
            },
            "fullUrl": "/ValueSet/SMART-PROMs-VS3"
        },
        {
            "request": {
                "method": "PUT",
                "url": "ValueSet/SMART-PROMs-VS4"
            },
            "resource": {
                "resourceType": "ValueSet",
                "url": "/ValueSet/SMART-PROMs-VS4",
                "id": "SMART-PROMs-VS4",
                "name": "LivingArrangement",
                "status": "draft",
                "compose": {
                    "include": [
                        {
                            "system": "http://content.digital.nhs.uk/media/1361/HES-Hospital-Episode-Statistics-PROMS-Data-Dictionary/pdf/Proms_Data_Dictionary.pdf",
                            "concept": [
                                {
                                    "code": "1",
                                    "display": "I live with partner/spouse/family/friends"
                                },
                                {
                                    "code": "2",
                                    "display": "I live alone"
                                },
                                {
                                    "code": "3",
                                    "display": "I live in a nursing home, hospital or other long-term care home"
                                },
                                {
                                    "code": "4",
                                    "display": "Other"
                                },
                                {
                                    "code": "9",
                                    "display": "Missing"
                                }
                            ]
                        }
                    ]
                },
                "meta": {
                    "tag": [
                        {
                            "system": "https://smarthealthit.org/tags",
                            "code": "pro-7-2017"
                        }
                    ]
                }
            },
            "fullUrl": "/ValueSet/SMART-PROMs-VS4"
        },
        {
            "request": {
                "method": "PUT",
                "url": "ValueSet/SMART-PROMs-VS5"
            },
            "resource": {
                "resourceType": "ValueSet",
                "url": "/ValueSet/SMART-PROMs-VS5",
                "id": "SMART-PROMs-VS5",
                "name": "SymptomPeriod",
                "status": "draft",
                "compose": {
                    "include": [
                        {
                            "system": "http://content.digital.nhs.uk/media/1361/HES-Hospital-Episode-Statistics-PROMS-Data-Dictionary/pdf/Proms_Data_Dictionary.pdf",
                            "concept": [
                                {
                                    "code": "1",
                                    "display": "Less than 1 year"
                                },
                                {
                                    "code": "2",
                                    "display": "1 to 5 Years"
                                },
                                {
                                    "code": "3",
                                    "display": "6 to 10 Years"
                                },
                                {
                                    "code": "4",
                                    "display": "More than 10 years"
                                }
                            ]
                        }
                    ]
                },
                "meta": {
                    "tag": [
                        {
                            "system": "https://smarthealthit.org/tags",
                            "code": "pro-7-2017"
                        }
                    ]
                }
            },
            "fullUrl": "/ValueSet/SMART-PROMs-VS5"
        },
        {
            "request": {
                "method": "PUT",
                "url": "Questionnaire/SMART-PROMs-QUE1"
            },
            "resource": {
                "resourceType": "Questionnaire",
                "url": "/Questionnaire/SMART-PROMs-QUE1",
                "id": "SMART-PROMs-QUE1",
                "text": {
                    "status": "generated",
                    "div": "<div xmlns=\"http://www.w3.org/1999/xhtml\">Pre-Op Q1 PROMs General Health Questionnaire</div>"
                },
                "identifier": [
                    {
                        "use": "official",
                        "system": "https://www.england.nhs.uk/statistics/statistical-work-areas/proms/",
                        "value": "Pre-Op Q1 PROMs General Health Questionnaire"
                    }
                ],
                "status": "active",
                "item": [
                    {
                        "linkId": "Assisted",
                        "text": "Is Anyone helping you fill in this questionnaire?",
                        "type": "choice",
                        "required": true,
                        "options": {
                            "reference": "ValueSet/SMART-PROMs-VS2"
                        }
                    },
                    {
                        "linkId": "Assisted By",
                        "text": "If Yes, give the relationship to you of the person assisting you",
                        "type": "choice",
                        "required": false,
                        "options": {
                            "reference": "ValueSet/SMART-PROMs-VS3"
                        }
                    },
                    {
                        "linkId": "Symptom Period",
                        "text": "For how long have you had problems with the body part on which you are about to have surgery?",
                        "type": "choice",
                        "required": true,
                        "options": {
                            "reference": "ValueSet/SMART-PROMs-VS5"
                        }
                    },
                    {
                        "linkId": "Previous Surgery",
                        "text": "Indicates whether the patient has had previous surgery of the type they are going to undergo",
                        "type": "choice",
                        "required": true,
                        "options": {
                            "reference": "ValueSet/SMART-PROMs-VS2"
                        }
                    },
                    {
                        "linkId": "Living Arrangements",
                        "text": "Which statement best describes your living arrangements?",
                        "type": "choice",
                        "required": true,
                        "options": {
                            "reference": "ValueSet/SMART-PROMs-VS4"
                        }
                    },
                    {
                        "linkId": "Disability",
                        "text": "Do you consider yourself to have a disability?",
                        "type": "choice",
                        "required": true,
                        "options": {
                            "reference": "ValueSet/SMART-PROMs-VS2"
                        }
                    },
                    {
                        "linkId": "Heart Disease",
                        "text": "Have you been told by a doctor that you have heart disease?",
                        "type": "choice",
                        "options": {
                            "reference": "ValueSet/SMART-PROMs-VS1"
                        }
                    },
                    {
                        "linkId": "Blood Pressure",
                        "text": "Have you been told by a doctor that you have high blood pressure?",
                        "type": "choice",
                        "options": {
                            "reference": "ValueSet/SMART-PROMs-VS1"
                        }
                    },
                    {
                        "linkId": "Stroke",
                        "text": "Have you been told by a doctor that you have problems caused by a stroke?",
                        "type": "choice",
                        "options": {
                            "reference": "ValueSet/SMART-PROMs-VS1"
                        }
                    },
                    {
                        "linkId": "Circulation",
                        "text": "Have you been told by a doctor that you have leg pain when walking due to poor circulation?",
                        "type": "choice",
                        "options": {
                            "reference": "ValueSet/SMART-PROMs-VS1"
                        }
                    },
                    {
                        "linkId": "Lung Disease",
                        "text": "Have you been told by a doctor that you have lung disease?",
                        "type": "choice",
                        "options": {
                            "reference": "ValueSet/SMART-PROMs-VS1"
                        }
                    },
                    {
                        "linkId": "Diabetes",
                        "text": "Have you been told by a doctor that you have diabetes?",
                        "type": "choice",
                        "options": {
                            "reference": "ValueSet/SMART-PROMs-VS1"
                        }
                    },
                    {
                        "linkId": "Kidney Disease",
                        "text": "Have you been told by a doctor that you have kidney disease?",
                        "type": "choice",
                        "options": {
                            "reference": "ValueSet/SMART-PROMs-VS1"
                        }
                    },
                    {
                        "linkId": "Nervous System",
                        "text": "Have you been told by a doctor that you have diseases of the nervous system?",
                        "type": "choice",
                        "options": {
                            "reference": "ValueSet/SMART-PROMs-VS1"
                        }
                    },
                    {
                        "linkId": "Liver Disease",
                        "text": "Have you been told by a doctor that you have liver disease?",
                        "type": "choice",
                        "options": {
                            "reference": "ValueSet/SMART-PROMs-VS1"
                        }
                    },
                    {
                        "linkId": "Cancer",
                        "text": "Have you been told by a doctor that you have cancer?",
                        "type": "choice",
                        "options": {
                            "reference": "ValueSet/SMART-PROMs-VS1"
                        }
                    },
                    {
                        "linkId": "Depression",
                        "text": "Have you been told by a doctor that you have depression?",
                        "type": "choice",
                        "options": {
                            "reference": "ValueSet/SMART-PROMs-VS1"
                        }
                    },
                    {
                        "linkId": "Arthritis",
                        "text": "Have you been told by a doctor that you have arthritis?",
                        "type": "choice",
                        "options": {
                            "reference": "ValueSet/SMART-PROMs-VS1"
                        }
                    }
                ],
                "meta": {
                    "tag": [
                        {
                            "system": "https://smarthealthit.org/tags",
                            "code": "pro-7-2017"
                        }
                    ]
                }
            },
            "fullUrl": "/Questionnaire/SMART-PROMs-QUE1"
        }
    ]
}